@prefix prov:  <http://www.w3.org/ns/prov#> .
@prefix mms:   <http://rdf.cdisc.org/mms#> .
@prefix prop:  <http://www.example.org/dc/ae/prop/> .
@prefix code:  <http://www.example.org/dc/code/> .
@prefix qb:    <http://purl.org/linked-data/cube#> .
@prefix rdfs:  <http://www.w3.org/2000/01/rdf-schema#> .
@prefix dccs:  <http://www.example.org/dc/ae/dccs/> .
@prefix dcat:  <http://www.w3.org/ns/dcat#> .
@prefix pav:   <http://purl.org/pav> .
@prefix dct:   <http://purl.org/dc/terms/> .
@prefix owl:   <http://www.w3.org/2002/07/owl#> .
@prefix xsd:   <http://www.w3.org/2001/XMLSchema#> .
@prefix rdf:   <http://www.w3.org/1999/02/22-rdf-syntax-ns#> .
@prefix skos:  <http://www.w3.org/2004/02/skos/core#> .
@prefix cts:   <http://rdf.cdisc.org/ct/schema#> .
@prefix rrdfqbcrnd0: <http://www.example.org/rrdfqbcrnd0/> .
@prefix ds:    <http://www.example.org/dc/ae/ds/> .

code:aedecod-SINUS_ARRHYTHMIA
        a                  code:Aedecod , skos:Concept ;
        rdfs:comment       "Coded values from data source. No reconciliation against another source"@en ;
        skos:inScheme      code:aedecod ;
        skos:prefLabel     "SINUS ARRHYTHMIA" ;
        skos:topConceptOf  code:aedecod .

ds:obs378  a              qb:Observation ;
        rdfs:label        "378" ;
        qb:dataSet        ds:dataset-AE ;
        prop:aedecod      code:aedecod-ATRIAL_FIBRILLATION ;
        prop:aesoc        code:aesoc-CARDIAC_DISORDERS ;
        prop:denominator  "_NULL_" ;
        prop:factor       code:factor-quantity ;
        prop:measure      "1"^^xsd:int ;
        prop:procedure    code:procedure-count ;
        prop:saffl        code:saffl-Y ;
        prop:trta         code:trta-Xanomeline_Low_Dose ;
        prop:unit         "_NULL_"^^xsd:string .

code:aedecod-BLOOD_CHOLESTEROL_INCREASED
        a                  code:Aedecod , skos:Concept ;
        rdfs:comment       "Coded values from data source. No reconciliation against another source"@en ;
        skos:inScheme      code:aedecod ;
        skos:prefLabel     "BLOOD CHOLESTEROL INCREASED" ;
        skos:topConceptOf  code:aedecod .

ds:obs125  a              qb:Observation ;
        rdfs:label        "125" ;
        qb:dataSet        ds:dataset-AE ;
        prop:aedecod      code:aedecod-_ALL_ ;
        prop:aesoc        code:aesoc-RESPIRATORY__THORACIC_AND_MEDIASTINAL_DISORDERS ;
        prop:denominator  "_NULL_" ;
        prop:factor       code:factor-USUBJID ;
        prop:measure      "10"^^xsd:int ;
        prop:procedure    code:procedure-countdistinct ;
        prop:saffl        code:saffl-Y ;
        prop:trta         code:trta-Xanomeline_Low_Dose ;
        prop:unit         "_NULL_"^^xsd:string .

code:aedecod-ATRIAL_FLUTTER
        a                  code:Aedecod , skos:Concept ;
        rdfs:comment       "Coded values from data source. No reconciliation against another source"@en ;
        skos:inScheme      code:aedecod ;
        skos:prefLabel     "ATRIAL FLUTTER" ;
        skos:topConceptOf  code:aedecod .

ds:obs844  a              qb:Observation ;
        rdfs:label        "844" ;
        qb:dataSet        ds:dataset-AE ;
        prop:aedecod      code:aedecod-CONFUSIONAL_STATE ;
        prop:aesoc        code:aesoc-PSYCHIATRIC_DISORDERS ;
        prop:denominator  "_NULL_" ;
        prop:factor       code:factor-USUBJID ;
        prop:measure      "3"^^xsd:int ;
        prop:procedure    code:procedure-countdistinct ;
        prop:saffl        code:saffl-Y ;
        prop:trta         code:trta-Xanomeline_Low_Dose ;
        prop:unit         "_NULL_"^^xsd:string .

ds:obs599  a              qb:Observation ;
        rdfs:label        "599" ;
        qb:dataSet        ds:dataset-AE ;
        prop:aedecod      code:aedecod-PELVIC_PAIN ;
        prop:aesoc        code:aesoc-REPRODUCTIVE_SYSTEM_AND_BREAST_DISORDERS ;
        prop:denominator  "_NULL_" ;
        prop:factor       code:factor-USUBJID ;
        prop:measure      "1"^^xsd:int ;
        prop:procedure    code:procedure-countdistinct ;
        prop:saffl        code:saffl-Y ;
        prop:trta         code:trta-Placebo ;
        prop:unit         "_NULL_"^^xsd:string .

code:aedecod-APPLICATION_SITE_IRRITATION
        a                  code:Aedecod , skos:Concept ;
        rdfs:comment       "Coded values from data source. No reconciliation against another source"@en ;
        skos:inScheme      code:aedecod ;
        skos:prefLabel     "APPLICATION SITE IRRITATION" ;
        skos:topConceptOf  code:aedecod .

ds:obs346  a              qb:Observation ;
        rdfs:label        "346" ;
        qb:dataSet        ds:dataset-AE ;
        prop:aedecod      code:aedecod-CALCULUS_URETHRAL ;
        prop:aesoc        code:aesoc-RENAL_AND_URINARY_DISORDERS ;
        prop:denominator  "_NULL_" ;
        prop:factor       code:factor-quantity ;
        prop:measure      "1"^^xsd:int ;
        prop:procedure    code:procedure-count ;
        prop:saffl        code:saffl-Y ;
        prop:trta         code:trta-Xanomeline_High_Dose ;
        prop:unit         "_NULL_"^^xsd:string .

ds:obs171  a              qb:Observation ;
        rdfs:label        "171" ;
        qb:dataSet        ds:dataset-AE ;
        prop:aedecod      code:aedecod-HYPERBILIRUBINAEMIA ;
        prop:aesoc        code:aesoc-HEPATOBILIARY_DISORDERS ;
        prop:denominator  "_NULL_" ;
        prop:factor       code:factor-quantity ;
        prop:measure      "1"^^xsd:int ;
        prop:procedure    code:procedure-count ;
        prop:saffl        code:saffl-Y ;
        prop:trta         code:trta-Placebo ;
        prop:unit         "_NULL_"^^xsd:string .

code:aedecod-HYPOTENSION
        a                  code:Aedecod , skos:Concept ;
        rdfs:comment       "Coded values from data source. No reconciliation against another source"@en ;
        skos:inScheme      code:aedecod ;
        skos:prefLabel     "HYPOTENSION" ;
        skos:topConceptOf  code:aedecod .

code:aedecod-UPPER_RESPIRATORY_TRACT_INFECTION
        a                  code:Aedecod , skos:Concept ;
        rdfs:comment       "Coded values from data source. No reconciliation against another source"@en ;
        skos:inScheme      code:aedecod ;
        skos:prefLabel     "UPPER RESPIRATORY TRACT INFECTION" ;
        skos:topConceptOf  code:aedecod .

code:aedecod-_ALL_  a      code:Aedecod , skos:Concept ;
        rdfs:comment       "Coded values from data source. No reconciliation against another source"@en ;
        skos:inScheme      code:aedecod ;
        skos:prefLabel     "_ALL_" ;
        skos:topConceptOf  code:aedecod .

code:aedecod-HORDEOLUM
        a                  code:Aedecod , skos:Concept ;
        rdfs:comment       "Coded values from data source. No reconciliation against another source"@en ;
        skos:inScheme      code:aedecod ;
        skos:prefLabel     "HORDEOLUM" ;
        skos:topConceptOf  code:aedecod .

code:aedecod-CATARACT_OPERATION
        a                  code:Aedecod , skos:Concept ;
        rdfs:comment       "Coded values from data source. No reconciliation against another source"@en ;
        skos:inScheme      code:aedecod ;
        skos:prefLabel     "CATARACT OPERATION" ;
        skos:topConceptOf  code:aedecod .

ds:obs812  a              qb:Observation ;
        rdfs:label        "812" ;
        qb:dataSet        ds:dataset-AE ;
        prop:aedecod      code:aedecod-WOUND ;
        prop:aesoc        code:aesoc-INJURY__POISONING_AND_PROCEDURAL_COMPLICATIONS ;
        prop:denominator  "_NULL_" ;
        prop:factor       code:factor-USUBJID ;
        prop:measure      "1"^^xsd:int ;
        prop:procedure    code:procedure-countdistinct ;
        prop:saffl        code:saffl-Y ;
        prop:trta         code:trta-Xanomeline_Low_Dose ;
        prop:unit         "_NULL_"^^xsd:string .

ds:obs392  a              qb:Observation ;
        rdfs:label        "392" ;
        qb:dataSet        ds:dataset-AE ;
        prop:aedecod      code:aedecod-VERTIGO ;
        prop:aesoc        code:aesoc-EAR_AND_LABYRINTH_DISORDERS ;
        prop:denominator  "_NULL_" ;
        prop:factor       code:factor-quantity ;
        prop:measure      "1"^^xsd:int ;
        prop:procedure    code:procedure-count ;
        prop:saffl        code:saffl-Y ;
        prop:trta         code:trta-Xanomeline_Low_Dose ;
        prop:unit         "_NULL_"^^xsd:string .

ds:obs4  a                qb:Observation ;
        rdfs:label        "4" ;
        qb:dataSet        ds:dataset-AE ;
        prop:aedecod      code:aedecod-_ALL_ ;
        prop:aesoc        code:aesoc-_ALL_ ;
        prop:denominator  "_NULL_" ;
        prop:factor       code:factor-USUBJID ;
        prop:measure      "69"^^xsd:int ;
        prop:procedure    code:procedure-countdistinct ;
        prop:saffl        code:saffl-Y ;
        prop:trta         code:trta-Placebo ;
        prop:unit         "_NULL_"^^xsd:string .

ds:obs567  a              qb:Observation ;
        rdfs:label        "567" ;
        qb:dataSet        ds:dataset-AE ;
        prop:aedecod      code:aedecod-ELECTROCARDIOGRAM_T_WAVE_INVERSION ;
        prop:aesoc        code:aesoc-INVESTIGATIONS ;
        prop:denominator  "_NULL_" ;
        prop:factor       code:factor-USUBJID ;
        prop:measure      "2"^^xsd:int ;
        prop:procedure    code:procedure-countdistinct ;
        prop:saffl        code:saffl-Y ;
        prop:trta         code:trta-Placebo ;
        prop:unit         "_NULL_"^^xsd:string .

ds:obs314  a              qb:Observation ;
        rdfs:label        "314" ;
        qb:dataSet        ds:dataset-AE ;
        prop:aedecod      code:aedecod-ARTHRALGIA ;
        prop:aesoc        code:aesoc-MUSCULOSKELETAL_AND_CONNECTIVE_TISSUE_DISORDERS ;
        prop:denominator  "_NULL_" ;
        prop:factor       code:factor-quantity ;
        prop:measure      "1"^^xsd:int ;
        prop:procedure    code:procedure-count ;
        prop:saffl        code:saffl-Y ;
        prop:trta         code:trta-Xanomeline_High_Dose ;
        prop:unit         "_NULL_"^^xsd:string .

code:aedecod-CELLULITIS
        a                  code:Aedecod , skos:Concept ;
        rdfs:comment       "Coded values from data source. No reconciliation against another source"@en ;
        skos:inScheme      code:aedecod ;
        skos:prefLabel     "CELLULITIS" ;
        skos:topConceptOf  code:aedecod .

ds:obs97  a               qb:Observation ;
        rdfs:label        "97" ;
        qb:dataSet        ds:dataset-AE ;
        prop:aedecod      code:aedecod-_ALL_ ;
        prop:aesoc        code:aesoc-METABOLISM_AND_NUTRITION_DISORDERS ;
        prop:denominator  "_NULL_" ;
        prop:factor       code:factor-USUBJID ;
        prop:measure      "3"^^xsd:int ;
        prop:procedure    code:procedure-countdistinct ;
        prop:saffl        code:saffl-Y ;
        prop:trta         code:trta-Xanomeline_High_Dose ;
        prop:unit         "_NULL_"^^xsd:string .

ds:obs19  a               qb:Observation ;
        rdfs:label        "19" ;
        qb:dataSet        ds:dataset-AE ;
        prop:aedecod      code:aedecod-_ALL_ ;
        prop:aesoc        code:aesoc-PSYCHIATRIC_DISORDERS ;
        prop:denominator  "_NULL_" ;
        prop:factor       code:factor-quantity ;
        prop:measure      "14"^^xsd:int ;
        prop:procedure    code:procedure-count ;
        prop:saffl        code:saffl-Y ;
        prop:trta         code:trta-Placebo ;
        prop:unit         "_NULL_"^^xsd:string .

ds:obs360  a              qb:Observation ;
        rdfs:label        "360" ;
        qb:dataSet        ds:dataset-AE ;
        prop:aedecod      code:aedecod-ACTINIC_KERATOSIS ;
        prop:aesoc        code:aesoc-SKIN_AND_SUBCUTANEOUS_TISSUE_DISORDERS ;
        prop:denominator  "_NULL_" ;
        prop:factor       code:factor-quantity ;
        prop:measure      "1"^^xsd:int ;
        prop:procedure    code:procedure-count ;
        prop:saffl        code:saffl-Y ;
        prop:trta         code:trta-Xanomeline_High_Dose ;
        prop:unit         "_NULL_"^^xsd:string .

ds:obs788  a              qb:Observation ;
        rdfs:label        "788" ;
        qb:dataSet        ds:dataset-AE ;
        prop:aedecod      code:aedecod-FATIGUE ;
        prop:aesoc        code:aesoc-GENERAL_DISORDERS_AND_ADMINISTRATION_SITE_CONDITIONS ;
        prop:denominator  "_NULL_" ;
        prop:factor       code:factor-USUBJID ;
        prop:measure      "5"^^xsd:int ;
        prop:procedure    code:procedure-countdistinct ;
        prop:saffl        code:saffl-Y ;
        prop:trta         code:trta-Xanomeline_Low_Dose ;
        prop:unit         "_NULL_"^^xsd:string .

ds:obs535  a              qb:Observation ;
        rdfs:label        "535" ;
        qb:dataSet        ds:dataset-AE ;
        prop:aedecod      code:aedecod-APPLICATION_SITE_IRRITATION ;
        prop:aesoc        code:aesoc-GENERAL_DISORDERS_AND_ADMINISTRATION_SITE_CONDITIONS ;
        prop:denominator  "_NULL_" ;
        prop:factor       code:factor-USUBJID ;
        prop:measure      "3"^^xsd:int ;
        prop:procedure    code:procedure-countdistinct ;
        prop:saffl        code:saffl-Y ;
        prop:trta         code:trta-Placebo ;
        prop:unit         "_NULL_"^^xsd:string .

ds:obs65  a               qb:Observation ;
        rdfs:label        "65" ;
        qb:dataSet        ds:dataset-AE ;
        prop:aedecod      code:aedecod-_ALL_ ;
        prop:aesoc        code:aesoc-SKIN_AND_SUBCUTANEOUS_TISSUE_DISORDERS ;
        prop:denominator  "_NULL_" ;
        prop:factor       code:factor-quantity ;
        prop:measure      "118"^^xsd:int ;
        prop:procedure    code:procedure-count ;
        prop:saffl        code:saffl-Y ;
        prop:trta         code:trta-Xanomeline_Low_Dose ;
        prop:unit         "_NULL_"^^xsd:string .

ds:obs581  a              qb:Observation ;
        rdfs:label        "581" ;
        qb:dataSet        ds:dataset-AE ;
        prop:aedecod      code:aedecod-DIZZINESS ;
        prop:aesoc        code:aesoc-NERVOUS_SYSTEM_DISORDERS ;
        prop:denominator  "_NULL_" ;
        prop:factor       code:factor-USUBJID ;
        prop:measure      "2"^^xsd:int ;
        prop:procedure    code:procedure-countdistinct ;
        prop:saffl        code:saffl-Y ;
        prop:trta         code:trta-Placebo ;
        prop:unit         "_NULL_"^^xsd:string .

ds:obs756  a              qb:Observation ;
        rdfs:label        "756" ;
        qb:dataSet        ds:dataset-AE ;
        prop:aedecod      code:aedecod-PALPITATIONS ;
        prop:aesoc        code:aesoc-CARDIAC_DISORDERS ;
        prop:denominator  "_NULL_" ;
        prop:factor       code:factor-USUBJID ;
        prop:measure      "2"^^xsd:int ;
        prop:procedure    code:procedure-countdistinct ;
        prop:saffl        code:saffl-Y ;
        prop:trta         code:trta-Xanomeline_Low_Dose ;
        prop:unit         "_NULL_"^^xsd:string .

ds:obs503  a              qb:Observation ;
        rdfs:label        "503" ;
        qb:dataSet        ds:dataset-AE ;
        prop:aedecod      code:aedecod-ATRIAL_HYPERTROPHY ;
        prop:aesoc        code:aesoc-CARDIAC_DISORDERS ;
        prop:denominator  "_NULL_" ;
        prop:factor       code:factor-USUBJID ;
        prop:measure      "1"^^xsd:int ;
        prop:procedure    code:procedure-countdistinct ;
        prop:saffl        code:saffl-Y ;
        prop:trta         code:trta-Placebo ;
        prop:unit         "_NULL_"^^xsd:string .

code:aedecod-SKIN_LESION_EXCISION
        a                  code:Aedecod , skos:Concept ;
        rdfs:comment       "Coded values from data source. No reconciliation against another source"@en ;
        skos:inScheme      code:aedecod ;
        skos:prefLabel     "SKIN LESION EXCISION" ;
        skos:topConceptOf  code:aedecod .

ds:obs33  a               qb:Observation ;
        rdfs:label        "33" ;
        qb:dataSet        ds:dataset-AE ;
        prop:aedecod      code:aedecod-_ALL_ ;
        prop:aesoc        code:aesoc-INFECTIONS_AND_INFESTATIONS ;
        prop:denominator  "_NULL_" ;
        prop:factor       code:factor-quantity ;
        prop:measure      "20"^^xsd:int ;
        prop:procedure    code:procedure-count ;
        prop:saffl        code:saffl-Y ;
        prop:trta         code:trta-Xanomeline_High_Dose ;
        prop:unit         "_NULL_"^^xsd:string .

ds:obs258  a              qb:Observation ;
        rdfs:label        "258" ;
        qb:dataSet        ds:dataset-AE ;
        prop:aedecod      code:aedecod-VERTIGO ;
        prop:aesoc        code:aesoc-EAR_AND_LABYRINTH_DISORDERS ;
        prop:denominator  "_NULL_" ;
        prop:factor       code:factor-quantity ;
        prop:measure      "1"^^xsd:int ;
        prop:procedure    code:procedure-count ;
        prop:saffl        code:saffl-Y ;
        prop:trta         code:trta-Xanomeline_High_Dose ;
        prop:unit         "_NULL_"^^xsd:string .

ds:obs724  a              qb:Observation ;
        rdfs:label        "724" ;
        qb:dataSet        ds:dataset-AE ;
        prop:aedecod      code:aedecod-COUGH ;
        prop:aesoc        code:aesoc-RESPIRATORY__THORACIC_AND_MEDIASTINAL_DISORDERS ;
        prop:denominator  "_NULL_" ;
        prop:factor       code:factor-USUBJID ;
        prop:measure      "5"^^xsd:int ;
        prop:procedure    code:procedure-countdistinct ;
        prop:saffl        code:saffl-Y ;
        prop:trta         code:trta-Xanomeline_High_Dose ;
        prop:unit         "_NULL_"^^xsd:string .

ds:obs479  a              qb:Observation ;
        rdfs:label        "479" ;
        qb:dataSet        ds:dataset-AE ;
        prop:aedecod      code:aedecod-COUGH ;
        prop:aesoc        code:aesoc-RESPIRATORY__THORACIC_AND_MEDIASTINAL_DISORDERS ;
        prop:denominator  "_NULL_" ;
        prop:factor       code:factor-quantity ;
        prop:measure      "9"^^xsd:int ;
        prop:procedure    code:procedure-count ;
        prop:saffl        code:saffl-Y ;
        prop:trta         code:trta-Xanomeline_Low_Dose ;
        prop:unit         "_NULL_"^^xsd:string .

ds:obs770  a              qb:Observation ;
        rdfs:label        "770" ;
        qb:dataSet        ds:dataset-AE ;
        prop:aedecod      code:aedecod-DYSPEPSIA ;
        prop:aesoc        code:aesoc-GASTROINTESTINAL_DISORDERS ;
        prop:denominator  "_NULL_" ;
        prop:factor       code:factor-USUBJID ;
        prop:measure      "1"^^xsd:int ;
        prop:procedure    code:procedure-countdistinct ;
        prop:saffl        code:saffl-Y ;
        prop:trta         code:trta-Xanomeline_Low_Dose ;
        prop:unit         "_NULL_"^^xsd:string .

ds:obs226  a              qb:Observation ;
        rdfs:label        "226" ;
        qb:dataSet        ds:dataset-AE ;
        prop:aedecod      code:aedecod-PELVIC_PAIN ;
        prop:aesoc        code:aesoc-REPRODUCTIVE_SYSTEM_AND_BREAST_DISORDERS ;
        prop:denominator  "_NULL_" ;
        prop:factor       code:factor-quantity ;
        prop:measure      "2"^^xsd:int ;
        prop:procedure    code:procedure-count ;
        prop:saffl        code:saffl-Y ;
        prop:trta         code:trta-Placebo ;
        prop:unit         "_NULL_"^^xsd:string .

code:aedecod-SOMNOLENCE
        a                  code:Aedecod , skos:Concept ;
        rdfs:comment       "Coded values from data source. No reconciliation against another source"@en ;
        skos:inScheme      code:aedecod ;
        skos:prefLabel     "SOMNOLENCE" ;
        skos:topConceptOf  code:aedecod .

code:aedecod-ELECTROCARDIOGRAM_ST_SEGMENT_DEPRESSION
        a                  code:Aedecod , skos:Concept ;
        rdfs:comment       "Coded values from data source. No reconciliation against another source"@en ;
        skos:inScheme      code:aedecod ;
        skos:prefLabel     "ELECTROCARDIOGRAM ST SEGMENT DEPRESSION" ;
        skos:topConceptOf  code:aedecod .

ds:obs272  a              qb:Observation ;
        rdfs:label        "272" ;
        qb:dataSet        ds:dataset-AE ;
        prop:aedecod      code:aedecod-APPLICATION_SITE_IRRITATION ;
        prop:aesoc        code:aesoc-GENERAL_DISORDERS_AND_ADMINISTRATION_SITE_CONDITIONS ;
        prop:denominator  "_NULL_" ;
        prop:factor       code:factor-quantity ;
        prop:measure      "16"^^xsd:int ;
        prop:procedure    code:procedure-count ;
        prop:saffl        code:saffl-Y ;
        prop:trta         code:trta-Xanomeline_High_Dose ;
        prop:unit         "_NULL_"^^xsd:string .

code:aedecod-OEDEMA  a     code:Aedecod , skos:Concept ;
        rdfs:comment       "Coded values from data source. No reconciliation against another source"@en ;
        skos:inScheme      code:aedecod ;
        skos:prefLabel     "OEDEMA" ;
        skos:topConceptOf  code:aedecod .

ds:obs447  a              qb:Observation ;
        rdfs:label        "447" ;
        qb:dataSet        ds:dataset-AE ;
        prop:aedecod      code:aedecod-URINE_ANALYSIS_ABNORMAL ;
        prop:aesoc        code:aesoc-INVESTIGATIONS ;
        prop:denominator  "_NULL_" ;
        prop:factor       code:factor-quantity ;
        prop:measure      "2"^^xsd:int ;
        prop:procedure    code:procedure-count ;
        prop:saffl        code:saffl-Y ;
        prop:trta         code:trta-Xanomeline_Low_Dose ;
        prop:unit         "_NULL_"^^xsd:string .

code:aedecod-DEHYDRATION
        a                  code:Aedecod , skos:Concept ;
        rdfs:comment       "Coded values from data source. No reconciliation against another source"@en ;
        skos:inScheme      code:aedecod ;
        skos:prefLabel     "DEHYDRATION" ;
        skos:topConceptOf  code:aedecod .

ds:obs493  a              qb:Observation ;
        rdfs:label        "493" ;
        qb:dataSet        ds:dataset-AE ;
        prop:aedecod      code:aedecod-RASH_ERYTHEMATOUS ;
        prop:aesoc        code:aesoc-SKIN_AND_SUBCUTANEOUS_TISSUE_DISORDERS ;
        prop:denominator  "_NULL_" ;
        prop:factor       code:factor-quantity ;
        prop:measure      "2"^^xsd:int ;
        prop:procedure    code:procedure-count ;
        prop:saffl        code:saffl-Y ;
        prop:trta         code:trta-Xanomeline_Low_Dose ;
        prop:unit         "_NULL_"^^xsd:string .

code:aedecod-FLANK_PAIN
        a                  code:Aedecod , skos:Concept ;
        rdfs:comment       "Coded values from data source. No reconciliation against another source"@en ;
        skos:inScheme      code:aedecod ;
        skos:prefLabel     "FLANK PAIN" ;
        skos:topConceptOf  code:aedecod .

ds:obs240  a              qb:Observation ;
        rdfs:label        "240" ;
        qb:dataSet        ds:dataset-AE ;
        prop:aedecod      code:aedecod-PRURITUS ;
        prop:aesoc        code:aesoc-SKIN_AND_SUBCUTANEOUS_TISSUE_DISORDERS ;
        prop:denominator  "_NULL_" ;
        prop:factor       code:factor-quantity ;
        prop:measure      "11"^^xsd:int ;
        prop:procedure    code:procedure-count ;
        prop:saffl        code:saffl-Y ;
        prop:trta         code:trta-Placebo ;
        prop:unit         "_NULL_"^^xsd:string .

ds:obs668  a              qb:Observation ;
        rdfs:label        "668" ;
        qb:dataSet        ds:dataset-AE ;
        prop:aedecod      code:aedecod-LOWER_RESPIRATORY_TRACT_INFECTION ;
        prop:aesoc        code:aesoc-INFECTIONS_AND_INFESTATIONS ;
        prop:denominator  "_NULL_" ;
        prop:factor       code:factor-USUBJID ;
        prop:measure      "1"^^xsd:int ;
        prop:procedure    code:procedure-countdistinct ;
        prop:saffl        code:saffl-Y ;
        prop:trta         code:trta-Xanomeline_High_Dose ;
        prop:unit         "_NULL_"^^xsd:string .

ds:obs415  a              qb:Observation ;
        rdfs:label        "415" ;
        qb:dataSet        ds:dataset-AE ;
        prop:aedecod      code:aedecod-FATIGUE ;
        prop:aesoc        code:aesoc-GENERAL_DISORDERS_AND_ADMINISTRATION_SITE_CONDITIONS ;
        prop:denominator  "_NULL_" ;
        prop:factor       code:factor-quantity ;
        prop:measure      "5"^^xsd:int ;
        prop:procedure    code:procedure-count ;
        prop:saffl        code:saffl-Y ;
        prop:trta         code:trta-Xanomeline_Low_Dose ;
        prop:unit         "_NULL_"^^xsd:string .

ds:obs461  a              qb:Observation ;
        rdfs:label        "461" ;
        qb:dataSet        ds:dataset-AE ;
        prop:aedecod      code:aedecod-HEADACHE ;
        prop:aesoc        code:aesoc-NERVOUS_SYSTEM_DISORDERS ;
        prop:denominator  "_NULL_" ;
        prop:factor       code:factor-quantity ;
        prop:measure      "4"^^xsd:int ;
        prop:procedure    code:procedure-count ;
        prop:saffl        code:saffl-Y ;
        prop:trta         code:trta-Xanomeline_Low_Dose ;
        prop:unit         "_NULL_"^^xsd:string .

code:aedecod-SECRETION_DISCHARGE
        a                  code:Aedecod , skos:Concept ;
        rdfs:comment       "Coded values from data source. No reconciliation against another source"@en ;
        skos:inScheme      code:aedecod ;
        skos:prefLabel     "SECRETION DISCHARGE" ;
        skos:topConceptOf  code:aedecod .

ds:obs636  a              qb:Observation ;
        rdfs:label        "636" ;
        qb:dataSet        ds:dataset-AE ;
        prop:aedecod      code:aedecod-DYSPEPSIA ;
        prop:aesoc        code:aesoc-GASTROINTESTINAL_DISORDERS ;
        prop:denominator  "_NULL_" ;
        prop:factor       code:factor-USUBJID ;
        prop:measure      "1"^^xsd:int ;
        prop:procedure    code:procedure-countdistinct ;
        prop:saffl        code:saffl-Y ;
        prop:trta         code:trta-Xanomeline_High_Dose ;
        prop:unit         "_NULL_"^^xsd:string .

ds:obs682  a              qb:Observation ;
        rdfs:label        "682" ;
        qb:dataSet        ds:dataset-AE ;
        prop:aedecod      code:aedecod-ELECTROCARDIOGRAM_T_WAVE_INVERSION ;
        prop:aesoc        code:aesoc-INVESTIGATIONS ;
        prop:denominator  "_NULL_" ;
        prop:factor       code:factor-USUBJID ;
        prop:measure      "1"^^xsd:int ;
        prop:procedure    code:procedure-countdistinct ;
        prop:saffl        code:saffl-Y ;
        prop:trta         code:trta-Xanomeline_High_Dose ;
        prop:unit         "_NULL_"^^xsd:string .

ds:obs138  a              qb:Observation ;
        rdfs:label        "138" ;
        qb:dataSet        ds:dataset-AE ;
        prop:aedecod      code:aedecod-SINUS_ARRHYTHMIA ;
        prop:aesoc        code:aesoc-CARDIAC_DISORDERS ;
        prop:denominator  "_NULL_" ;
        prop:factor       code:factor-quantity ;
        prop:measure      "2"^^xsd:int ;
        prop:procedure    code:procedure-count ;
        prop:saffl        code:saffl-Y ;
        prop:trta         code:trta-Placebo ;
        prop:unit         "_NULL_"^^xsd:string .

ds:obs857  a              qb:Observation ;
        rdfs:label        "857" ;
        qb:dataSet        ds:dataset-AE ;
        prop:aedecod      code:aedecod-PHARYNGOLARYNGEAL_PAIN ;
        prop:aesoc        code:aesoc-RESPIRATORY__THORACIC_AND_MEDIASTINAL_DISORDERS ;
        prop:denominator  "_NULL_" ;
        prop:factor       code:factor-USUBJID ;
        prop:measure      "1"^^xsd:int ;
        prop:procedure    code:procedure-countdistinct ;
        prop:saffl        code:saffl-Y ;
        prop:trta         code:trta-Xanomeline_Low_Dose ;
        prop:unit         "_NULL_"^^xsd:string .

dccs:aedecod  a       qb:ComponentSpecification ;
        rdfs:label    "Preferred Term" ;
        qb:dimension  prop:aedecod .

ds:obs604  a              qb:Observation ;
        rdfs:label        "604" ;
        qb:dataSet        ds:dataset-AE ;
        prop:aedecod      code:aedecod-NASAL_CONGESTION ;
        prop:aesoc        code:aesoc-RESPIRATORY__THORACIC_AND_MEDIASTINAL_DISORDERS ;
        prop:denominator  "_NULL_" ;
        prop:factor       code:factor-USUBJID ;
        prop:measure      "3"^^xsd:int ;
        prop:procedure    code:procedure-countdistinct ;
        prop:saffl        code:saffl-Y ;
        prop:trta         code:trta-Placebo ;
        prop:unit         "_NULL_"^^xsd:string .

ds:obs184  a              qb:Observation ;
        rdfs:label        "184" ;
        qb:dataSet        ds:dataset-AE ;
        prop:aedecod      code:aedecod-EXCORIATION ;
        prop:aesoc        code:aesoc-INJURY__POISONING_AND_PROCEDURAL_COMPLICATIONS ;
        prop:denominator  "_NULL_" ;
        prop:factor       code:factor-quantity ;
        prop:measure      "3"^^xsd:int ;
        prop:procedure    code:procedure-count ;
        prop:saffl        code:saffl-Y ;
        prop:trta         code:trta-Placebo ;
        prop:unit         "_NULL_"^^xsd:string .

ds:obs359  a              qb:Observation ;
        rdfs:label        "359" ;
        qb:dataSet        ds:dataset-AE ;
        prop:aedecod      code:aedecod-RHINORRHOEA ;
        prop:aesoc        code:aesoc-RESPIRATORY__THORACIC_AND_MEDIASTINAL_DISORDERS ;
        prop:denominator  "_NULL_" ;
        prop:factor       code:factor-quantity ;
        prop:measure      "2"^^xsd:int ;
        prop:procedure    code:procedure-count ;
        prop:saffl        code:saffl-Y ;
        prop:trta         code:trta-Xanomeline_High_Dose ;
        prop:unit         "_NULL_"^^xsd:string .

ds:obs650  a              qb:Observation ;
        rdfs:label        "650" ;
        qb:dataSet        ds:dataset-AE ;
        prop:aedecod      code:aedecod-APPLICATION_SITE_SWELLING ;
        prop:aesoc        code:aesoc-GENERAL_DISORDERS_AND_ADMINISTRATION_SITE_CONDITIONS ;
        prop:denominator  "_NULL_" ;
        prop:factor       code:factor-USUBJID ;
        prop:measure      "2"^^xsd:int ;
        prop:procedure    code:procedure-countdistinct ;
        prop:saffl        code:saffl-Y ;
        prop:trta         code:trta-Xanomeline_High_Dose ;
        prop:unit         "_NULL_"^^xsd:string .

ds:obs106  a              qb:Observation ;
        rdfs:label        "106" ;
        qb:dataSet        ds:dataset-AE ;
        prop:aedecod      code:aedecod-_ALL_ ;
        prop:aesoc        code:aesoc-SOCIAL_CIRCUMSTANCES ;
        prop:denominator  "_NULL_" ;
        prop:factor       code:factor-USUBJID ;
        prop:measure      "1"^^xsd:int ;
        prop:procedure    code:procedure-countdistinct ;
        prop:saffl        code:saffl-Y ;
        prop:trta         code:trta-Xanomeline_High_Dose ;
        prop:unit         "_NULL_"^^xsd:string .

ds:obs825  a              qb:Observation ;
        rdfs:label        "825" ;
        qb:dataSet        ds:dataset-AE ;
        prop:aedecod      code:aedecod-MUSCLE_SPASMS ;
        prop:aesoc        code:aesoc-MUSCULOSKELETAL_AND_CONNECTIVE_TISSUE_DISORDERS ;
        prop:denominator  "_NULL_" ;
        prop:factor       code:factor-USUBJID ;
        prop:measure      "1"^^xsd:int ;
        prop:procedure    code:procedure-countdistinct ;
        prop:saffl        code:saffl-Y ;
        prop:trta         code:trta-Xanomeline_Low_Dose ;
        prop:unit         "_NULL_"^^xsd:string .

ds:obs152  a              qb:Observation ;
        rdfs:label        "152" ;
        qb:dataSet        ds:dataset-AE ;
        prop:aedecod      code:aedecod-DYSPEPSIA ;
        prop:aesoc        code:aesoc-GASTROINTESTINAL_DISORDERS ;
        prop:denominator  "_NULL_" ;
        prop:factor       code:factor-quantity ;
        prop:measure      "2"^^xsd:int ;
        prop:procedure    code:procedure-count ;
        prop:saffl        code:saffl-Y ;
        prop:trta         code:trta-Placebo ;
        prop:unit         "_NULL_"^^xsd:string .

ds:obs871  a              qb:Observation ;
        rdfs:label        "871" ;
        qb:dataSet        ds:dataset-AE ;
        prop:aedecod      code:aedecod-CATARACT_OPERATION ;
        prop:aesoc        code:aesoc-SURGICAL_AND_MEDICAL_PROCEDURES ;
        prop:denominator  "_NULL_" ;
        prop:factor       code:factor-USUBJID ;
        prop:measure      "1"^^xsd:int ;
        prop:procedure    code:procedure-countdistinct ;
        prop:saffl        code:saffl-Y ;
        prop:trta         code:trta-Xanomeline_Low_Dose ;
        prop:unit         "_NULL_"^^xsd:string .

ds:obs327  a              qb:Observation ;
        rdfs:label        "327" ;
        qb:dataSet        ds:dataset-AE ;
        prop:aedecod      code:aedecod-LETHARGY ;
        prop:aesoc        code:aesoc-NERVOUS_SYSTEM_DISORDERS ;
        prop:denominator  "_NULL_" ;
        prop:factor       code:factor-quantity ;
        prop:measure      "1"^^xsd:int ;
        prop:procedure    code:procedure-count ;
        prop:saffl        code:saffl-Y ;
        prop:trta         code:trta-Xanomeline_High_Dose ;
        prop:unit         "_NULL_"^^xsd:string .

code:aedecod-SYNCOPE  a    code:Aedecod , skos:Concept ;
        rdfs:comment       "Coded values from data source. No reconciliation against another source"@en ;
        skos:inScheme      code:aedecod ;
        skos:prefLabel     "SYNCOPE" ;
        skos:topConceptOf  code:aedecod .

ds:obs373  a              qb:Observation ;
        rdfs:label        "373" ;
        qb:dataSet        ds:dataset-AE ;
        prop:aedecod      code:aedecod-ALCOHOL_USE ;
        prop:aesoc        code:aesoc-SOCIAL_CIRCUMSTANCES ;
        prop:denominator  "_NULL_" ;
        prop:factor       code:factor-quantity ;
        prop:measure      "1"^^xsd:int ;
        prop:procedure    code:procedure-count ;
        prop:saffl        code:saffl-Y ;
        prop:trta         code:trta-Xanomeline_High_Dose ;
        prop:unit         "_NULL_"^^xsd:string .

ds:obs120  a              qb:Observation ;
        rdfs:label        "120" ;
        qb:dataSet        ds:dataset-AE ;
        prop:aedecod      code:aedecod-_ALL_ ;
        prop:aesoc        code:aesoc-MUSCULOSKELETAL_AND_CONNECTIVE_TISSUE_DISORDERS ;
        prop:denominator  "_NULL_" ;
        prop:factor       code:factor-USUBJID ;
        prop:measure      "7"^^xsd:int ;
        prop:procedure    code:procedure-countdistinct ;
        prop:saffl        code:saffl-Y ;
        prop:trta         code:trta-Xanomeline_Low_Dose ;
        prop:unit         "_NULL_"^^xsd:string .

ds:obs548  a              qb:Observation ;
        rdfs:label        "548" ;
        qb:dataSet        ds:dataset-AE ;
        prop:aedecod      code:aedecod-EAR_INFECTION ;
        prop:aesoc        code:aesoc-INFECTIONS_AND_INFESTATIONS ;
        prop:denominator  "_NULL_" ;
        prop:factor       code:factor-USUBJID ;
        prop:measure      "2"^^xsd:int ;
        prop:procedure    code:procedure-countdistinct ;
        prop:saffl        code:saffl-Y ;
        prop:trta         code:trta-Placebo ;
        prop:unit         "_NULL_"^^xsd:string .

ds:obs78  a               qb:Observation ;
        rdfs:label        "78" ;
        qb:dataSet        ds:dataset-AE ;
        prop:aedecod      code:aedecod-_ALL_ ;
        prop:aesoc        code:aesoc-MUSCULOSKELETAL_AND_CONNECTIVE_TISSUE_DISORDERS ;
        prop:denominator  "_NULL_" ;
        prop:factor       code:factor-USUBJID ;
        prop:measure      "5"^^xsd:int ;
        prop:procedure    code:procedure-countdistinct ;
        prop:saffl        code:saffl-Y ;
        prop:trta         code:trta-Placebo ;
        prop:unit         "_NULL_"^^xsd:string .

code:aesoc-INFECTIONS_AND_INFESTATIONS
        a                  code:Aesoc , skos:Concept ;
        rdfs:comment       "Coded values from data source. No reconciliation against another source"@en ;
        skos:inScheme      code:aesoc ;
        skos:prefLabel     "INFECTIONS AND INFESTATIONS" ;
        skos:topConceptOf  code:aesoc .

ds:obs594  a              qb:Observation ;
        rdfs:label        "594" ;
        qb:dataSet        ds:dataset-AE ;
        prop:aedecod      code:aedecod-DYSURIA ;
        prop:aesoc        code:aesoc-RENAL_AND_URINARY_DISORDERS ;
        prop:denominator  "_NULL_" ;
        prop:factor       code:factor-USUBJID ;
        prop:measure      "1"^^xsd:int ;
        prop:procedure    code:procedure-countdistinct ;
        prop:saffl        code:saffl-Y ;
        prop:trta         code:trta-Placebo ;
        prop:unit         "_NULL_"^^xsd:string .

ds:obs769  a              qb:Observation ;
        rdfs:label        "769" ;
        qb:dataSet        ds:dataset-AE ;
        prop:aedecod      code:aedecod-DIARRHOEA ;
        prop:aesoc        code:aesoc-GASTROINTESTINAL_DISORDERS ;
        prop:denominator  "_NULL_" ;
        prop:factor       code:factor-USUBJID ;
        prop:measure      "5"^^xsd:int ;
        prop:procedure    code:procedure-countdistinct ;
        prop:saffl        code:saffl-Y ;
        prop:trta         code:trta-Xanomeline_Low_Dose ;
        prop:unit         "_NULL_"^^xsd:string .

ds:obs341  a              qb:Observation ;
        rdfs:label        "341" ;
        qb:dataSet        ds:dataset-AE ;
        prop:aedecod      code:aedecod-HALLUCINATION__VISUAL ;
        prop:aesoc        code:aesoc-PSYCHIATRIC_DISORDERS ;
        prop:denominator  "_NULL_" ;
        prop:factor       code:factor-quantity ;
        prop:measure      "1"^^xsd:int ;
        prop:procedure    code:procedure-count ;
        prop:saffl        code:saffl-Y ;
        prop:trta         code:trta-Xanomeline_High_Dose ;
        prop:unit         "_NULL_"^^xsd:string .

code:aedecod-SUPRAVENTRICULAR_EXTRASYSTOLES
        a                  code:Aedecod , skos:Concept ;
        rdfs:comment       "Coded values from data source. No reconciliation against another source"@en ;
        skos:inScheme      code:aedecod ;
        skos:prefLabel     "SUPRAVENTRICULAR EXTRASYSTOLES" ;
        skos:topConceptOf  code:aedecod .

ds:obs516  a              qb:Observation ;
        rdfs:label        "516" ;
        qb:dataSet        ds:dataset-AE ;
        prop:aedecod      code:aedecod-EAR_PAIN ;
        prop:aesoc        code:aesoc-EAR_AND_LABYRINTH_DISORDERS ;
        prop:denominator  "_NULL_" ;
        prop:factor       code:factor-USUBJID ;
        prop:measure      "1"^^xsd:int ;
        prop:procedure    code:procedure-countdistinct ;
        prop:saffl        code:saffl-Y ;
        prop:trta         code:trta-Placebo ;
        prop:unit         "_NULL_"^^xsd:string .

ds:obs46  a               qb:Observation ;
        rdfs:label        "46" ;
        qb:dataSet        ds:dataset-AE ;
        prop:aedecod      code:aedecod-_ALL_ ;
        prop:aesoc        code:aesoc-SURGICAL_AND_MEDICAL_PROCEDURES ;
        prop:denominator  "_NULL_" ;
        prop:factor       code:factor-quantity ;
        prop:measure      "2"^^xsd:int ;
        prop:procedure    code:procedure-count ;
        prop:saffl        code:saffl-Y ;
        prop:trta         code:trta-Xanomeline_High_Dose ;
        prop:unit         "_NULL_"^^xsd:string .

ds:obs562  a              qb:Observation ;
        rdfs:label        "562" ;
        qb:dataSet        ds:dataset-AE ;
        prop:aedecod      code:aedecod-BLOOD_CREATINE_PHOSPHOKINASE_INCREASED ;
        prop:aesoc        code:aesoc-INVESTIGATIONS ;
        prop:denominator  "_NULL_" ;
        prop:factor       code:factor-USUBJID ;
        prop:measure      "1"^^xsd:int ;
        prop:procedure    code:procedure-countdistinct ;
        prop:saffl        code:saffl-Y ;
        prop:trta         code:trta-Placebo ;
        prop:unit         "_NULL_"^^xsd:string .

ds:obs92  a               qb:Observation ;
        rdfs:label        "92" ;
        qb:dataSet        ds:dataset-AE ;
        prop:aedecod      code:aedecod-_ALL_ ;
        prop:aesoc        code:aesoc-GENERAL_DISORDERS_AND_ADMINISTRATION_SITE_CONDITIONS ;
        prop:denominator  "_NULL_" ;
        prop:factor       code:factor-USUBJID ;
        prop:measure      "40"^^xsd:int ;
        prop:procedure    code:procedure-countdistinct ;
        prop:saffl        code:saffl-Y ;
        prop:trta         code:trta-Xanomeline_High_Dose ;
        prop:unit         "_NULL_"^^xsd:string .

ds:obs737  a              qb:Observation ;
        rdfs:label        "737" ;
        qb:dataSet        ds:dataset-AE ;
        prop:aedecod      code:aedecod-PRURITUS ;
        prop:aesoc        code:aesoc-SKIN_AND_SUBCUTANEOUS_TISSUE_DISORDERS ;
        prop:denominator  "_NULL_" ;
        prop:factor       code:factor-USUBJID ;
        prop:measure      "26"^^xsd:int ;
        prop:procedure    code:procedure-countdistinct ;
        prop:saffl        code:saffl-Y ;
        prop:trta         code:trta-Xanomeline_High_Dose ;
        prop:unit         "_NULL_"^^xsd:string .

ds:obs14  a               qb:Observation ;
        rdfs:label        "14" ;
        qb:dataSet        ds:dataset-AE ;
        prop:aedecod      code:aedecod-_ALL_ ;
        prop:aesoc        code:aesoc-INJURY__POISONING_AND_PROCEDURAL_COMPLICATIONS ;
        prop:denominator  "_NULL_" ;
        prop:factor       code:factor-quantity ;
        prop:measure      "9"^^xsd:int ;
        prop:procedure    code:procedure-count ;
        prop:saffl        code:saffl-Y ;
        prop:trta         code:trta-Placebo ;
        prop:unit         "_NULL_"^^xsd:string .

ds:obs783  a              qb:Observation ;
        rdfs:label        "783" ;
        qb:dataSet        ds:dataset-AE ;
        prop:aedecod      code:aedecod-APPLICATION_SITE_URTICARIA ;
        prop:aesoc        code:aesoc-GENERAL_DISORDERS_AND_ADMINISTRATION_SITE_CONDITIONS ;
        prop:denominator  "_NULL_" ;
        prop:factor       code:factor-USUBJID ;
        prop:measure      "2"^^xsd:int ;
        prop:procedure    code:procedure-countdistinct ;
        prop:saffl        code:saffl-Y ;
        prop:trta         code:trta-Xanomeline_Low_Dose ;
        prop:unit         "_NULL_"^^xsd:string .

ds:obs239  a              qb:Observation ;
        rdfs:label        "239" ;
        qb:dataSet        ds:dataset-AE ;
        prop:aedecod      code:aedecod-HYPERHIDROSIS ;
        prop:aesoc        code:aesoc-SKIN_AND_SUBCUTANEOUS_TISSUE_DISORDERS ;
        prop:denominator  "_NULL_" ;
        prop:factor       code:factor-quantity ;
        prop:measure      "2"^^xsd:int ;
        prop:procedure    code:procedure-count ;
        prop:saffl        code:saffl-Y ;
        prop:trta         code:trta-Placebo ;
        prop:unit         "_NULL_"^^xsd:string .

ds:obs530  a              qb:Observation ;
        rdfs:label        "530" ;
        qb:dataSet        ds:dataset-AE ;
        prop:aedecod      code:aedecod-NAUSEA ;
        prop:aesoc        code:aesoc-GASTROINTESTINAL_DISORDERS ;
        prop:denominator  "_NULL_" ;
        prop:factor       code:factor-USUBJID ;
        prop:measure      "3"^^xsd:int ;
        prop:procedure    code:procedure-countdistinct ;
        prop:saffl        code:saffl-Y ;
        prop:trta         code:trta-Placebo ;
        prop:unit         "_NULL_"^^xsd:string .

code:aedecod-COUGH  a      code:Aedecod , skos:Concept ;
        rdfs:comment       "Coded values from data source. No reconciliation against another source"@en ;
        skos:inScheme      code:aedecod ;
        skos:prefLabel     "COUGH" ;
        skos:topConceptOf  code:aedecod .

ds:obs60  a               qb:Observation ;
        rdfs:label        "60" ;
        qb:dataSet        ds:dataset-AE ;
        prop:aedecod      code:aedecod-_ALL_ ;
        prop:aesoc        code:aesoc-NEOPLASMS_BENIGN__MALIGNANT_AND_UNSPECIFIED__INCL_CYSTS_AND_POLYPS_ ;
        prop:denominator  "_NULL_" ;
        prop:factor       code:factor-quantity ;
        prop:measure      "3"^^xsd:int ;
        prop:procedure    code:procedure-count ;
        prop:saffl        code:saffl-Y ;
        prop:trta         code:trta-Xanomeline_Low_Dose ;
        prop:unit         "_NULL_"^^xsd:string .

ds:obs705  a              qb:Observation ;
        rdfs:label        "705" ;
        qb:dataSet        ds:dataset-AE ;
        prop:aedecod      code:aedecod-SYNCOPE ;
        prop:aesoc        code:aesoc-NERVOUS_SYSTEM_DISORDERS ;
        prop:denominator  "_NULL_" ;
        prop:factor       code:factor-USUBJID ;
        prop:measure      "3"^^xsd:int ;
        prop:procedure    code:procedure-countdistinct ;
        prop:saffl        code:saffl-Y ;
        prop:trta         code:trta-Xanomeline_High_Dose ;
        prop:unit         "_NULL_"^^xsd:string .

ds:obs285  a              qb:Observation ;
        rdfs:label        "285" ;
        qb:dataSet        ds:dataset-AE ;
        prop:aedecod      code:aedecod-FEELING_ABNORMAL ;
        prop:aesoc        code:aesoc-GENERAL_DISORDERS_AND_ADMINISTRATION_SITE_CONDITIONS ;
        prop:denominator  "_NULL_" ;
        prop:factor       code:factor-quantity ;
        prop:measure      "1"^^xsd:int ;
        prop:procedure    code:procedure-count ;
        prop:saffl        code:saffl-Y ;
        prop:trta         code:trta-Xanomeline_High_Dose ;
        prop:unit         "_NULL_"^^xsd:string .

code:aedecod-ALCOHOL_USE
        a                  code:Aedecod , skos:Concept ;
        rdfs:comment       "Coded values from data source. No reconciliation against another source"@en ;
        skos:inScheme      code:aedecod ;
        skos:prefLabel     "ALCOHOL USE" ;
        skos:topConceptOf  code:aedecod .

ds:obs751  a              qb:Observation ;
        rdfs:label        "751" ;
        qb:dataSet        ds:dataset-AE ;
        prop:aedecod      code:aedecod-ATRIAL_FIBRILLATION ;
        prop:aesoc        code:aesoc-CARDIAC_DISORDERS ;
        prop:denominator  "_NULL_" ;
        prop:factor       code:factor-USUBJID ;
        prop:measure      "1"^^xsd:int ;
        prop:procedure    code:procedure-countdistinct ;
        prop:saffl        code:saffl-Y ;
        prop:trta         code:trta-Xanomeline_Low_Dose ;
        prop:unit         "_NULL_"^^xsd:string .

ds:obs207  a              qb:Observation ;
        rdfs:label        "207" ;
        qb:dataSet        ds:dataset-AE ;
        prop:aedecod      code:aedecod-SHOULDER_PAIN ;
        prop:aesoc        code:aesoc-MUSCULOSKELETAL_AND_CONNECTIVE_TISSUE_DISORDERS ;
        prop:denominator  "_NULL_" ;
        prop:factor       code:factor-quantity ;
        prop:measure      "2"^^xsd:int ;
        prop:procedure    code:procedure-count ;
        prop:saffl        code:saffl-Y ;
        prop:trta         code:trta-Placebo ;
        prop:unit         "_NULL_"^^xsd:string .

code:aedecod-CYST  a       code:Aedecod , skos:Concept ;
        rdfs:comment       "Coded values from data source. No reconciliation against another source"@en ;
        skos:inScheme      code:aedecod ;
        skos:prefLabel     "CYST" ;
        skos:topConceptOf  code:aedecod .

code:aedecod-HYPERTENSION
        a                  code:Aedecod , skos:Concept ;
        rdfs:comment       "Coded values from data source. No reconciliation against another source"@en ;
        skos:inScheme      code:aedecod ;
        skos:prefLabel     "HYPERTENSION" ;
        skos:topConceptOf  code:aedecod .

ds:obs253  a              qb:Observation ;
        rdfs:label        "253" ;
        qb:dataSet        ds:dataset-AE ;
        prop:aedecod      code:aedecod-MYOCARDIAL_INFARCTION ;
        prop:aesoc        code:aesoc-CARDIAC_DISORDERS ;
        prop:denominator  "_NULL_" ;
        prop:factor       code:factor-quantity ;
        prop:measure      "8"^^xsd:int ;
        prop:procedure    code:procedure-count ;
        prop:saffl        code:saffl-Y ;
        prop:trta         code:trta-Xanomeline_High_Dose ;
        prop:unit         "_NULL_"^^xsd:string .

ds:obs428  a              qb:Observation ;
        rdfs:label        "428" ;
        qb:dataSet        ds:dataset-AE ;
        prop:aedecod      code:aedecod-LOCALISED_INFECTION ;
        prop:aesoc        code:aesoc-INFECTIONS_AND_INFESTATIONS ;
        prop:denominator  "_NULL_" ;
        prop:factor       code:factor-quantity ;
        prop:measure      "1"^^xsd:int ;
        prop:procedure    code:procedure-count ;
        prop:saffl        code:saffl-Y ;
        prop:trta         code:trta-Xanomeline_Low_Dose ;
        prop:unit         "_NULL_"^^xsd:string .

code:aedecod-EPISTAXIS
        a                  code:Aedecod , skos:Concept ;
        rdfs:comment       "Coded values from data source. No reconciliation against another source"@en ;
        skos:inScheme      code:aedecod ;
        skos:prefLabel     "EPISTAXIS" ;
        skos:topConceptOf  code:aedecod .

code:aedecod-BALANCE_DISORDER
        a                  code:Aedecod , skos:Concept ;
        rdfs:comment       "Coded values from data source. No reconciliation against another source"@en ;
        skos:inScheme      code:aedecod ;
        skos:prefLabel     "BALANCE DISORDER" ;
        skos:topConceptOf  code:aedecod .

code:aedecod-EMPHYSEMA
        a                  code:Aedecod , skos:Concept ;
        rdfs:comment       "Coded values from data source. No reconciliation against another source"@en ;
        skos:inScheme      code:aedecod ;
        skos:prefLabel     "EMPHYSEMA" ;
        skos:topConceptOf  code:aedecod .

ds:obs474  a              qb:Observation ;
        rdfs:label        "474" ;
        qb:dataSet        ds:dataset-AE ;
        prop:aedecod      code:aedecod-RESTLESSNESS ;
        prop:aesoc        code:aesoc-PSYCHIATRIC_DISORDERS ;
        prop:denominator  "_NULL_" ;
        prop:factor       code:factor-quantity ;
        prop:measure      "2"^^xsd:int ;
        prop:procedure    code:procedure-count ;
        prop:saffl        code:saffl-Y ;
        prop:trta         code:trta-Xanomeline_Low_Dose ;
        prop:unit         "_NULL_"^^xsd:string .

ds:obs221  a              qb:Observation ;
        rdfs:label        "221" ;
        qb:dataSet        ds:dataset-AE ;
        prop:aedecod      code:aedecod-DYSURIA ;
        prop:aesoc        code:aesoc-RENAL_AND_URINARY_DISORDERS ;
        prop:denominator  "_NULL_" ;
        prop:factor       code:factor-quantity ;
        prop:measure      "1"^^xsd:int ;
        prop:procedure    code:procedure-count ;
        prop:saffl        code:saffl-Y ;
        prop:trta         code:trta-Placebo ;
        prop:unit         "_NULL_"^^xsd:string .

ds:obs649  a              qb:Observation ;
        rdfs:label        "649" ;
        qb:dataSet        ds:dataset-AE ;
        prop:aedecod      code:aedecod-APPLICATION_SITE_REACTION ;
        prop:aesoc        code:aesoc-GENERAL_DISORDERS_AND_ADMINISTRATION_SITE_CONDITIONS ;
        prop:denominator  "_NULL_" ;
        prop:factor       code:factor-USUBJID ;
        prop:measure      "1"^^xsd:int ;
        prop:procedure    code:procedure-countdistinct ;
        prop:saffl        code:saffl-Y ;
        prop:trta         code:trta-Xanomeline_High_Dose ;
        prop:unit         "_NULL_"^^xsd:string .

ds:obs695  a              qb:Observation ;
        rdfs:label        "695" ;
        qb:dataSet        ds:dataset-AE ;
        prop:aedecod      code:aedecod-BURNING_SENSATION ;
        prop:aesoc        code:aesoc-NERVOUS_SYSTEM_DISORDERS ;
        prop:denominator  "_NULL_" ;
        prop:factor       code:factor-USUBJID ;
        prop:measure      "2"^^xsd:int ;
        prop:procedure    code:procedure-countdistinct ;
        prop:saffl        code:saffl-Y ;
        prop:trta         code:trta-Xanomeline_High_Dose ;
        prop:unit         "_NULL_"^^xsd:string .

ds:obs442  a              qb:Observation ;
        rdfs:label        "442" ;
        qb:dataSet        ds:dataset-AE ;
        prop:aedecod      code:aedecod-ELECTROCARDIOGRAM_ST_SEGMENT_DEPRESSION ;
        prop:aesoc        code:aesoc-INVESTIGATIONS ;
        prop:denominator  "_NULL_" ;
        prop:factor       code:factor-quantity ;
        prop:measure      "2"^^xsd:int ;
        prop:procedure    code:procedure-count ;
        prop:saffl        code:saffl-Y ;
        prop:trta         code:trta-Xanomeline_Low_Dose ;
        prop:unit         "_NULL_"^^xsd:string .

ds:obs617  a              qb:Observation ;
        rdfs:label        "617" ;
        qb:dataSet        ds:dataset-AE ;
        prop:aedecod      code:aedecod-CATARACT_OPERATION ;
        prop:aesoc        code:aesoc-SURGICAL_AND_MEDICAL_PROCEDURES ;
        prop:denominator  "_NULL_" ;
        prop:factor       code:factor-USUBJID ;
        prop:measure      "1"^^xsd:int ;
        prop:procedure    code:procedure-countdistinct ;
        prop:saffl        code:saffl-Y ;
        prop:trta         code:trta-Placebo ;
        prop:unit         "_NULL_"^^xsd:string .

code:aedecod-NASOPHARYNGITIS
        a                  code:Aedecod , skos:Concept ;
        rdfs:comment       "Coded values from data source. No reconciliation against another source"@en ;
        skos:inScheme      code:aedecod ;
        skos:prefLabel     "NASOPHARYNGITIS" ;
        skos:topConceptOf  code:aedecod .

ds:obs197  a              qb:Observation ;
        rdfs:label        "197" ;
        qb:dataSet        ds:dataset-AE ;
        prop:aedecod      code:aedecod-DECREASED_APPETITE ;
        prop:aesoc        code:aesoc-METABOLISM_AND_NUTRITION_DISORDERS ;
        prop:denominator  "_NULL_" ;
        prop:factor       code:factor-quantity ;
        prop:measure      "2"^^xsd:int ;
        prop:procedure    code:procedure-count ;
        prop:saffl        code:saffl-Y ;
        prop:trta         code:trta-Placebo ;
        prop:unit         "_NULL_"^^xsd:string .

code:aedecod-FATIGUE  a    code:Aedecod , skos:Concept ;
        rdfs:comment       "Coded values from data source. No reconciliation against another source"@en ;
        skos:inScheme      code:aedecod ;
        skos:prefLabel     "FATIGUE" ;
        skos:topConceptOf  code:aedecod .

ds:obs663  a              qb:Observation ;
        rdfs:label        "663" ;
        qb:dataSet        ds:dataset-AE ;
        prop:aedecod      code:aedecod-PYREXIA ;
        prop:aesoc        code:aesoc-GENERAL_DISORDERS_AND_ADMINISTRATION_SITE_CONDITIONS ;
        prop:denominator  "_NULL_" ;
        prop:factor       code:factor-USUBJID ;
        prop:measure      "1"^^xsd:int ;
        prop:procedure    code:procedure-countdistinct ;
        prop:saffl        code:saffl-Y ;
        prop:trta         code:trta-Xanomeline_High_Dose ;
        prop:unit         "_NULL_"^^xsd:string .

ds:obs119  a              qb:Observation ;
        rdfs:label        "119" ;
        qb:dataSet        ds:dataset-AE ;
        prop:aedecod      code:aedecod-_ALL_ ;
        prop:aesoc        code:aesoc-METABOLISM_AND_NUTRITION_DISORDERS ;
        prop:denominator  "_NULL_" ;
        prop:factor       code:factor-USUBJID ;
        prop:measure      "1"^^xsd:int ;
        prop:procedure    code:procedure-countdistinct ;
        prop:saffl        code:saffl-Y ;
        prop:trta         code:trta-Xanomeline_Low_Dose ;
        prop:unit         "_NULL_"^^xsd:string .

ds:obs410  a              qb:Observation ;
        rdfs:label        "410" ;
        qb:dataSet        ds:dataset-AE ;
        prop:aedecod      code:aedecod-APPLICATION_SITE_URTICARIA ;
        prop:aesoc        code:aesoc-GENERAL_DISORDERS_AND_ADMINISTRATION_SITE_CONDITIONS ;
        prop:denominator  "_NULL_" ;
        prop:factor       code:factor-quantity ;
        prop:measure      "2"^^xsd:int ;
        prop:procedure    code:procedure-count ;
        prop:saffl        code:saffl-Y ;
        prop:trta         code:trta-Xanomeline_Low_Dose ;
        prop:unit         "_NULL_"^^xsd:string .

ds:obs838  a              qb:Observation ;
        rdfs:label        "838" ;
        qb:dataSet        ds:dataset-AE ;
        prop:aedecod      code:aedecod-SOMNOLENCE ;
        prop:aesoc        code:aesoc-NERVOUS_SYSTEM_DISORDERS ;
        prop:denominator  "_NULL_" ;
        prop:factor       code:factor-USUBJID ;
        prop:measure      "3"^^xsd:int ;
        prop:procedure    code:procedure-countdistinct ;
        prop:saffl        code:saffl-Y ;
        prop:trta         code:trta-Xanomeline_Low_Dose ;
        prop:unit         "_NULL_"^^xsd:string .

ds:obs165  a              qb:Observation ;
        rdfs:label        "165" ;
        qb:dataSet        ds:dataset-AE ;
        prop:aedecod      code:aedecod-APPLICATION_SITE_VESICLES ;
        prop:aesoc        code:aesoc-GENERAL_DISORDERS_AND_ADMINISTRATION_SITE_CONDITIONS ;
        prop:denominator  "_NULL_" ;
        prop:factor       code:factor-quantity ;
        prop:measure      "2"^^xsd:int ;
        prop:procedure    code:procedure-count ;
        prop:saffl        code:saffl-Y ;
        prop:trta         code:trta-Placebo ;
        prop:unit         "_NULL_"^^xsd:string .

ds:obs631  a              qb:Observation ;
        rdfs:label        "631" ;
        qb:dataSet        ds:dataset-AE ;
        prop:aedecod      code:aedecod-VERTIGO ;
        prop:aesoc        code:aesoc-EAR_AND_LABYRINTH_DISORDERS ;
        prop:denominator  "_NULL_" ;
        prop:factor       code:factor-USUBJID ;
        prop:measure      "1"^^xsd:int ;
        prop:procedure    code:procedure-countdistinct ;
        prop:saffl        code:saffl-Y ;
        prop:trta         code:trta-Xanomeline_High_Dose ;
        prop:unit         "_NULL_"^^xsd:string .

ds:obs806  a              qb:Observation ;
        rdfs:label        "806" ;
        qb:dataSet        ds:dataset-AE ;
        prop:aedecod      code:aedecod-VIRAL_INFECTION ;
        prop:aesoc        code:aesoc-INFECTIONS_AND_INFESTATIONS ;
        prop:denominator  "_NULL_" ;
        prop:factor       code:factor-USUBJID ;
        prop:measure      "1"^^xsd:int ;
        prop:procedure    code:procedure-countdistinct ;
        prop:saffl        code:saffl-Y ;
        prop:trta         code:trta-Xanomeline_Low_Dose ;
        prop:unit         "_NULL_"^^xsd:string .

code:aedecod-VOMITING
        a                  code:Aedecod , skos:Concept ;
        rdfs:comment       "Coded values from data source. No reconciliation against another source"@en ;
        skos:inScheme      code:aedecod ;
        skos:prefLabel     "VOMITING" ;
        skos:topConceptOf  code:aedecod .

ds:obs386  a              qb:Observation ;
        rdfs:label        "386" ;
        qb:dataSet        ds:dataset-AE ;
        prop:aedecod      code:aedecod-SUPRAVENTRICULAR_TACHYCARDIA ;
        prop:aesoc        code:aesoc-CARDIAC_DISORDERS ;
        prop:denominator  "_NULL_" ;
        prop:factor       code:factor-quantity ;
        prop:measure      "2"^^xsd:int ;
        prop:procedure    code:procedure-count ;
        prop:saffl        code:saffl-Y ;
        prop:trta         code:trta-Xanomeline_Low_Dose ;
        prop:unit         "_NULL_"^^xsd:string .

ds:obs133  a              qb:Observation ;
        rdfs:label        "133" ;
        qb:dataSet        ds:dataset-AE ;
        prop:aedecod      code:aedecod-BRADYCARDIA ;
        prop:aesoc        code:aesoc-CARDIAC_DISORDERS ;
        prop:denominator  "_NULL_" ;
        prop:factor       code:factor-quantity ;
        prop:measure      "4"^^xsd:int ;
        prop:procedure    code:procedure-count ;
        prop:saffl        code:saffl-Y ;
        prop:trta         code:trta-Placebo ;
        prop:unit         "_NULL_"^^xsd:string .

ds:obs852  a              qb:Observation ;
        rdfs:label        "852" ;
        qb:dataSet        ds:dataset-AE ;
        prop:aedecod      code:aedecod-COUGH ;
        prop:aesoc        code:aesoc-RESPIRATORY__THORACIC_AND_MEDIASTINAL_DISORDERS ;
        prop:denominator  "_NULL_" ;
        prop:factor       code:factor-USUBJID ;
        prop:measure      "6"^^xsd:int ;
        prop:procedure    code:procedure-countdistinct ;
        prop:saffl        code:saffl-Y ;
        prop:trta         code:trta-Xanomeline_Low_Dose ;
        prop:unit         "_NULL_"^^xsd:string .

ds:obs308  a              qb:Observation ;
        rdfs:label        "308" ;
        qb:dataSet        ds:dataset-AE ;
        prop:aedecod      code:aedecod-BLOOD_GLUCOSE_INCREASED ;
        prop:aesoc        code:aesoc-INVESTIGATIONS ;
        prop:denominator  "_NULL_" ;
        prop:factor       code:factor-quantity ;
        prop:measure      "2"^^xsd:int ;
        prop:procedure    code:procedure-count ;
        prop:saffl        code:saffl-Y ;
        prop:trta         code:trta-Xanomeline_High_Dose ;
        prop:unit         "_NULL_"^^xsd:string .

code:aedecod-MUSCLE_SPASMS
        a                  code:Aedecod , skos:Concept ;
        rdfs:comment       "Coded values from data source. No reconciliation against another source"@en ;
        skos:inScheme      code:aedecod ;
        skos:prefLabel     "MUSCLE SPASMS" ;
        skos:topConceptOf  code:aedecod .

code:aedecod-HYPERBILIRUBINAEMIA
        a                  code:Aedecod , skos:Concept ;
        rdfs:comment       "Coded values from data source. No reconciliation against another source"@en ;
        skos:inScheme      code:aedecod ;
        skos:prefLabel     "HYPERBILIRUBINAEMIA" ;
        skos:topConceptOf  code:aedecod .

ds:obs820  a              qb:Observation ;
        rdfs:label        "820" ;
        qb:dataSet        ds:dataset-AE ;
        prop:aedecod      code:aedecod-URINE_ANALYSIS_ABNORMAL ;
        prop:aesoc        code:aesoc-INVESTIGATIONS ;
        prop:denominator  "_NULL_" ;
        prop:factor       code:factor-USUBJID ;
        prop:measure      "1"^^xsd:int ;
        prop:procedure    code:procedure-countdistinct ;
        prop:saffl        code:saffl-Y ;
        prop:trta         code:trta-Xanomeline_Low_Dose ;
        prop:unit         "_NULL_"^^xsd:string .

ds:obs354  a              qb:Observation ;
        rdfs:label        "354" ;
        qb:dataSet        ds:dataset-AE ;
        prop:aedecod      code:aedecod-NASAL_CONGESTION ;
        prop:aesoc        code:aesoc-RESPIRATORY__THORACIC_AND_MEDIASTINAL_DISORDERS ;
        prop:denominator  "_NULL_" ;
        prop:factor       code:factor-quantity ;
        prop:measure      "4"^^xsd:int ;
        prop:procedure    code:procedure-count ;
        prop:saffl        code:saffl-Y ;
        prop:trta         code:trta-Xanomeline_High_Dose ;
        prop:unit         "_NULL_"^^xsd:string .

code:aedecod-DIZZINESS
        a                  code:Aedecod , skos:Concept ;
        rdfs:comment       "Coded values from data source. No reconciliation against another source"@en ;
        skos:inScheme      code:aedecod ;
        skos:prefLabel     "DIZZINESS" ;
        skos:topConceptOf  code:aedecod .

ds:obs101  a              qb:Observation ;
        rdfs:label        "101" ;
        qb:dataSet        ds:dataset-AE ;
        prop:aedecod      code:aedecod-_ALL_ ;
        prop:aesoc        code:aesoc-PSYCHIATRIC_DISORDERS ;
        prop:denominator  "_NULL_" ;
        prop:factor       code:factor-USUBJID ;
        prop:measure      "9"^^xsd:int ;
        prop:procedure    code:procedure-countdistinct ;
        prop:saffl        code:saffl-Y ;
        prop:trta         code:trta-Xanomeline_High_Dose ;
        prop:unit         "_NULL_"^^xsd:string .

ds:obs529  a              qb:Observation ;
        rdfs:label        "529" ;
        qb:dataSet        ds:dataset-AE ;
        prop:aedecod      code:aedecod-HIATUS_HERNIA ;
        prop:aesoc        code:aesoc-GASTROINTESTINAL_DISORDERS ;
        prop:denominator  "_NULL_" ;
        prop:factor       code:factor-USUBJID ;
        prop:measure      "1"^^xsd:int ;
        prop:procedure    code:procedure-countdistinct ;
        prop:saffl        code:saffl-Y ;
        prop:trta         code:trta-Placebo ;
        prop:unit         "_NULL_"^^xsd:string .

ds:obs59  a               qb:Observation ;
        rdfs:label        "59" ;
        qb:dataSet        ds:dataset-AE ;
        prop:aedecod      code:aedecod-_ALL_ ;
        prop:aesoc        code:aesoc-MUSCULOSKELETAL_AND_CONNECTIVE_TISSUE_DISORDERS ;
        prop:denominator  "_NULL_" ;
        prop:factor       code:factor-quantity ;
        prop:measure      "10"^^xsd:int ;
        prop:procedure    code:procedure-count ;
        prop:saffl        code:saffl-Y ;
        prop:trta         code:trta-Xanomeline_Low_Dose ;
        prop:unit         "_NULL_"^^xsd:string .

code:aedecod-PHARYNGEAL_ERYTHEMA
        a                  code:Aedecod , skos:Concept ;
        rdfs:comment       "Coded values from data source. No reconciliation against another source"@en ;
        skos:inScheme      code:aedecod ;
        skos:prefLabel     "PHARYNGEAL ERYTHEMA" ;
        skos:topConceptOf  code:aedecod .

ds:obs575  a              qb:Observation ;
        rdfs:label        "575" ;
        qb:dataSet        ds:dataset-AE ;
        prop:aedecod      code:aedecod-INCREASED_APPETITE ;
        prop:aesoc        code:aesoc-METABOLISM_AND_NUTRITION_DISORDERS ;
        prop:denominator  "_NULL_" ;
        prop:factor       code:factor-USUBJID ;
        prop:measure      "1"^^xsd:int ;
        prop:procedure    code:procedure-countdistinct ;
        prop:saffl        code:saffl-Y ;
        prop:trta         code:trta-Placebo ;
        prop:unit         "_NULL_"^^xsd:string .

code:aedecod-HIATUS_HERNIA
        a                  code:Aedecod , skos:Concept ;
        rdfs:comment       "Coded values from data source. No reconciliation against another source"@en ;
        skos:inScheme      code:aedecod ;
        skos:prefLabel     "HIATUS HERNIA" ;
        skos:topConceptOf  code:aedecod .

ds:obs322  a              qb:Observation ;
        rdfs:label        "322" ;
        qb:dataSet        ds:dataset-AE ;
        prop:aedecod      code:aedecod-BURNING_SENSATION ;
        prop:aesoc        code:aesoc-NERVOUS_SYSTEM_DISORDERS ;
        prop:denominator  "_NULL_" ;
        prop:factor       code:factor-quantity ;
        prop:measure      "2"^^xsd:int ;
        prop:procedure    code:procedure-count ;
        prop:saffl        code:saffl-Y ;
        prop:trta         code:trta-Xanomeline_High_Dose ;
        prop:unit         "_NULL_"^^xsd:string .

ds:obs27  a               qb:Observation ;
        rdfs:label        "27" ;
        qb:dataSet        ds:dataset-AE ;
        prop:aedecod      code:aedecod-_ALL_ ;
        prop:aesoc        code:aesoc-CONGENITAL__FAMILIAL_AND_GENETIC_DISORDERS ;
        prop:denominator  "_NULL_" ;
        prop:factor       code:factor-quantity ;
        prop:measure      "2"^^xsd:int ;
        prop:procedure    code:procedure-count ;
        prop:saffl        code:saffl-Y ;
        prop:trta         code:trta-Xanomeline_High_Dose ;
        prop:unit         "_NULL_"^^xsd:string .

ds:obs796  a              qb:Observation ;
        rdfs:label        "796" ;
        qb:dataSet        ds:dataset-AE ;
        prop:aedecod      code:aedecod-SWELLING ;
        prop:aesoc        code:aesoc-GENERAL_DISORDERS_AND_ADMINISTRATION_SITE_CONDITIONS ;
        prop:denominator  "_NULL_" ;
        prop:factor       code:factor-USUBJID ;
        prop:measure      "1"^^xsd:int ;
        prop:procedure    code:procedure-countdistinct ;
        prop:saffl        code:saffl-Y ;
        prop:trta         code:trta-Xanomeline_Low_Dose ;
        prop:unit         "_NULL_"^^xsd:string .

ds:obs543  a              qb:Observation ;
        rdfs:label        "543" ;
        qb:dataSet        ds:dataset-AE ;
        prop:aedecod      code:aedecod-PYREXIA ;
        prop:aesoc        code:aesoc-GENERAL_DISORDERS_AND_ADMINISTRATION_SITE_CONDITIONS ;
        prop:denominator  "_NULL_" ;
        prop:factor       code:factor-USUBJID ;
        prop:measure      "2"^^xsd:int ;
        prop:procedure    code:procedure-countdistinct ;
        prop:saffl        code:saffl-Y ;
        prop:trta         code:trta-Placebo ;
        prop:unit         "_NULL_"^^xsd:string .

ds:obs73  a               qb:Observation ;
        rdfs:label        "73" ;
        qb:dataSet        ds:dataset-AE ;
        prop:aedecod      code:aedecod-_ALL_ ;
        prop:aesoc        code:aesoc-HEPATOBILIARY_DISORDERS ;
        prop:denominator  "_NULL_" ;
        prop:factor       code:factor-USUBJID ;
        prop:measure      "1"^^xsd:int ;
        prop:procedure    code:procedure-countdistinct ;
        prop:saffl        code:saffl-Y ;
        prop:trta         code:trta-Placebo ;
        prop:unit         "_NULL_"^^xsd:string .

ds:obs718  a              qb:Observation ;
        rdfs:label        "718" ;
        qb:dataSet        ds:dataset-AE ;
        prop:aedecod      code:aedecod-NIGHTMARE ;
        prop:aesoc        code:aesoc-PSYCHIATRIC_DISORDERS ;
        prop:denominator  "_NULL_" ;
        prop:factor       code:factor-USUBJID ;
        prop:measure      "1"^^xsd:int ;
        prop:procedure    code:procedure-countdistinct ;
        prop:saffl        code:saffl-Y ;
        prop:trta         code:trta-Xanomeline_High_Dose ;
        prop:unit         "_NULL_"^^xsd:string .

ds:obs298  a              qb:Observation ;
        rdfs:label        "298" ;
        qb:dataSet        ds:dataset-AE ;
        prop:aedecod      code:aedecod-UPPER_RESPIRATORY_TRACT_INFECTION ;
        prop:aesoc        code:aesoc-INFECTIONS_AND_INFESTATIONS ;
        prop:denominator  "_NULL_" ;
        prop:factor       code:factor-quantity ;
        prop:measure      "5"^^xsd:int ;
        prop:procedure    code:procedure-count ;
        prop:saffl        code:saffl-Y ;
        prop:trta         code:trta-Xanomeline_High_Dose ;
        prop:unit         "_NULL_"^^xsd:string .

code:aedecod-STUPOR  a     code:Aedecod , skos:Concept ;
        rdfs:comment       "Coded values from data source. No reconciliation against another source"@en ;
        skos:inScheme      code:aedecod ;
        skos:prefLabel     "STUPOR" ;
        skos:topConceptOf  code:aedecod .

ds:obs764  a              qb:Observation ;
        rdfs:label        "764" ;
        qb:dataSet        ds:dataset-AE ;
        prop:aedecod      code:aedecod-TINNITUS ;
        prop:aesoc        code:aesoc-EAR_AND_LABYRINTH_DISORDERS ;
        prop:denominator  "_NULL_" ;
        prop:factor       code:factor-USUBJID ;
        prop:measure      "1"^^xsd:int ;
        prop:procedure    code:procedure-countdistinct ;
        prop:saffl        code:saffl-Y ;
        prop:trta         code:trta-Xanomeline_Low_Dose ;
        prop:unit         "_NULL_"^^xsd:string .

ds:obs511  a              qb:Observation ;
        rdfs:label        "511" ;
        qb:dataSet        ds:dataset-AE ;
        prop:aedecod      code:aedecod-SINUS_ARRHYTHMIA ;
        prop:aesoc        code:aesoc-CARDIAC_DISORDERS ;
        prop:denominator  "_NULL_" ;
        prop:factor       code:factor-USUBJID ;
        prop:measure      "1"^^xsd:int ;
        prop:procedure    code:procedure-countdistinct ;
        prop:saffl        code:saffl-Y ;
        prop:trta         code:trta-Placebo ;
        prop:unit         "_NULL_"^^xsd:string .

ds:obs41  a               qb:Observation ;
        rdfs:label        "41" ;
        qb:dataSet        ds:dataset-AE ;
        prop:aedecod      code:aedecod-_ALL_ ;
        prop:aesoc        code:aesoc-RENAL_AND_URINARY_DISORDERS ;
        prop:denominator  "_NULL_" ;
        prop:factor       code:factor-quantity ;
        prop:measure      "4"^^xsd:int ;
        prop:procedure    code:procedure-count ;
        prop:saffl        code:saffl-Y ;
        prop:trta         code:trta-Xanomeline_High_Dose ;
        prop:unit         "_NULL_"^^xsd:string .

ds:obs266  a              qb:Observation ;
        rdfs:label        "266" ;
        qb:dataSet        ds:dataset-AE ;
        prop:aedecod      code:aedecod-SALIVARY_HYPERSECRETION ;
        prop:aesoc        code:aesoc-GASTROINTESTINAL_DISORDERS ;
        prop:denominator  "_NULL_" ;
        prop:factor       code:factor-quantity ;
        prop:measure      "5"^^xsd:int ;
        prop:procedure    code:procedure-count ;
        prop:saffl        code:saffl-Y ;
        prop:trta         code:trta-Xanomeline_High_Dose ;
        prop:unit         "_NULL_"^^xsd:string .

code:aedecod-WOUND  a      code:Aedecod , skos:Concept ;
        rdfs:comment       "Coded values from data source. No reconciliation against another source"@en ;
        skos:inScheme      code:aedecod ;
        skos:prefLabel     "WOUND" ;
        skos:topConceptOf  code:aedecod .

ds:obs732  a              qb:Observation ;
        rdfs:label        "732" ;
        qb:dataSet        ds:dataset-AE ;
        prop:aedecod      code:aedecod-RHINORRHOEA ;
        prop:aesoc        code:aesoc-RESPIRATORY__THORACIC_AND_MEDIASTINAL_DISORDERS ;
        prop:denominator  "_NULL_" ;
        prop:factor       code:factor-USUBJID ;
        prop:measure      "1"^^xsd:int ;
        prop:procedure    code:procedure-countdistinct ;
        prop:saffl        code:saffl-Y ;
        prop:trta         code:trta-Xanomeline_High_Dose ;
        prop:unit         "_NULL_"^^xsd:string .

ds:obs487  a              qb:Observation ;
        rdfs:label        "487" ;
        qb:dataSet        ds:dataset-AE ;
        prop:aedecod      code:aedecod-DERMATITIS_CONTACT ;
        prop:aesoc        code:aesoc-SKIN_AND_SUBCUTANEOUS_TISSUE_DISORDERS ;
        prop:denominator  "_NULL_" ;
        prop:factor       code:factor-quantity ;
        prop:measure      "2"^^xsd:int ;
        prop:procedure    code:procedure-count ;
        prop:saffl        code:saffl-Y ;
        prop:trta         code:trta-Xanomeline_Low_Dose ;
        prop:unit         "_NULL_"^^xsd:string .

ds:obs234  a              qb:Observation ;
        rdfs:label        "234" ;
        qb:dataSet        ds:dataset-AE ;
        prop:aedecod      code:aedecod-ALOPECIA ;
        prop:aesoc        code:aesoc-SKIN_AND_SUBCUTANEOUS_TISSUE_DISORDERS ;
        prop:denominator  "_NULL_" ;
        prop:factor       code:factor-quantity ;
        prop:measure      "1"^^xsd:int ;
        prop:procedure    code:procedure-count ;
        prop:saffl        code:saffl-Y ;
        prop:trta         code:trta-Placebo ;
        prop:unit         "_NULL_"^^xsd:string .

ds:obs409  a              qb:Observation ;
        rdfs:label        "409" ;
        qb:dataSet        ds:dataset-AE ;
        prop:aedecod      code:aedecod-APPLICATION_SITE_SWELLING ;
        prop:aesoc        code:aesoc-GENERAL_DISORDERS_AND_ADMINISTRATION_SITE_CONDITIONS ;
        prop:denominator  "_NULL_" ;
        prop:factor       code:factor-quantity ;
        prop:measure      "1"^^xsd:int ;
        prop:procedure    code:procedure-count ;
        prop:saffl        code:saffl-Y ;
        prop:trta         code:trta-Xanomeline_Low_Dose ;
        prop:unit         "_NULL_"^^xsd:string .

ds:obs700  a              qb:Observation ;
        rdfs:label        "700" ;
        qb:dataSet        ds:dataset-AE ;
        prop:aedecod      code:aedecod-LETHARGY ;
        prop:aesoc        code:aesoc-NERVOUS_SYSTEM_DISORDERS ;
        prop:denominator  "_NULL_" ;
        prop:factor       code:factor-USUBJID ;
        prop:measure      "1"^^xsd:int ;
        prop:procedure    code:procedure-countdistinct ;
        prop:saffl        code:saffl-Y ;
        prop:trta         code:trta-Xanomeline_High_Dose ;
        prop:unit         "_NULL_"^^xsd:string .

code:aedecod-INFLUENZA
        a                  code:Aedecod , skos:Concept ;
        rdfs:comment       "Coded values from data source. No reconciliation against another source"@en ;
        skos:inScheme      code:aedecod ;
        skos:prefLabel     "INFLUENZA" ;
        skos:topConceptOf  code:aedecod .

ds:obs280  a              qb:Observation ;
        rdfs:label        "280" ;
        qb:dataSet        ds:dataset-AE ;
        prop:aedecod      code:aedecod-ASTHENIA ;
        prop:aesoc        code:aesoc-GENERAL_DISORDERS_AND_ADMINISTRATION_SITE_CONDITIONS ;
        prop:denominator  "_NULL_" ;
        prop:factor       code:factor-quantity ;
        prop:measure      "1"^^xsd:int ;
        prop:procedure    code:procedure-count ;
        prop:saffl        code:saffl-Y ;
        prop:trta         code:trta-Xanomeline_High_Dose ;
        prop:unit         "_NULL_"^^xsd:string .

ds:obs455  a              qb:Observation ;
        rdfs:label        "455" ;
        qb:dataSet        ds:dataset-AE ;
        prop:aedecod      code:aedecod-COLON_CANCER ;
        prop:aesoc        code:aesoc-NEOPLASMS_BENIGN__MALIGNANT_AND_UNSPECIFIED__INCL_CYSTS_AND_POLYPS_ ;
        prop:denominator  "_NULL_" ;
        prop:factor       code:factor-quantity ;
        prop:measure      "1"^^xsd:int ;
        prop:procedure    code:procedure-count ;
        prop:saffl        code:saffl-Y ;
        prop:trta         code:trta-Xanomeline_Low_Dose ;
        prop:unit         "_NULL_"^^xsd:string .

code:aedecod-HEMIANOPIA_HOMONYMOUS
        a                  code:Aedecod , skos:Concept ;
        rdfs:comment       "Coded values from data source. No reconciliation against another source"@en ;
        skos:inScheme      code:aedecod ;
        skos:prefLabel     "HEMIANOPIA HOMONYMOUS" ;
        skos:topConceptOf  code:aedecod .

ds:obs202  a              qb:Observation ;
        rdfs:label        "202" ;
        qb:dataSet        ds:dataset-AE ;
        prop:aedecod      code:aedecod-INCREASED_APPETITE ;
        prop:aesoc        code:aesoc-METABOLISM_AND_NUTRITION_DISORDERS ;
        prop:denominator  "_NULL_" ;
        prop:factor       code:factor-quantity ;
        prop:measure      "2"^^xsd:int ;
        prop:procedure    code:procedure-count ;
        prop:saffl        code:saffl-Y ;
        prop:trta         code:trta-Placebo ;
        prop:unit         "_NULL_"^^xsd:string .

code:aedecod-MALIGNANT_FIBROUS_HISTIOCYTOMA
        a                  code:Aedecod , skos:Concept ;
        rdfs:comment       "Coded values from data source. No reconciliation against another source"@en ;
        skos:inScheme      code:aedecod ;
        skos:prefLabel     "MALIGNANT FIBROUS HISTIOCYTOMA" ;
        skos:topConceptOf  code:aedecod .

prop:measure  a     rdf:Property , qb:MeasureProperty ;
        rdfs:label  "Value of the statistical measure" .

ds:obs676  a              qb:Observation ;
        rdfs:label        "676" ;
        qb:dataSet        ds:dataset-AE ;
        prop:aedecod      code:aedecod-FALL ;
        prop:aesoc        code:aesoc-INJURY__POISONING_AND_PROCEDURAL_COMPLICATIONS ;
        prop:denominator  "_NULL_" ;
        prop:factor       code:factor-USUBJID ;
        prop:measure      "1"^^xsd:int ;
        prop:procedure    code:procedure-countdistinct ;
        prop:saffl        code:saffl-Y ;
        prop:trta         code:trta-Xanomeline_High_Dose ;
        prop:unit         "_NULL_"^^xsd:string .

ds:obs423  a              qb:Observation ;
        rdfs:label        "423" ;
        qb:dataSet        ds:dataset-AE ;
        prop:aedecod      code:aedecod-SWELLING ;
        prop:aesoc        code:aesoc-GENERAL_DISORDERS_AND_ADMINISTRATION_SITE_CONDITIONS ;
        prop:denominator  "_NULL_" ;
        prop:factor       code:factor-quantity ;
        prop:measure      "1"^^xsd:int ;
        prop:procedure    code:procedure-count ;
        prop:saffl        code:saffl-Y ;
        prop:trta         code:trta-Xanomeline_Low_Dose ;
        prop:unit         "_NULL_"^^xsd:string .

ds:obs178  a              qb:Observation ;
        rdfs:label        "178" ;
        qb:dataSet        ds:dataset-AE ;
        prop:aedecod      code:aedecod-LOCALISED_INFECTION ;
        prop:aesoc        code:aesoc-INFECTIONS_AND_INFESTATIONS ;
        prop:denominator  "_NULL_" ;
        prop:factor       code:factor-quantity ;
        prop:measure      "2"^^xsd:int ;
        prop:procedure    code:procedure-count ;
        prop:saffl        code:saffl-Y ;
        prop:trta         code:trta-Placebo ;
        prop:unit         "_NULL_"^^xsd:string .

ds:obs644  a              qb:Observation ;
        rdfs:label        "644" ;
        qb:dataSet        ds:dataset-AE ;
        prop:aedecod      code:aedecod-APPLICATION_SITE_ERYTHEMA ;
        prop:aesoc        code:aesoc-GENERAL_DISORDERS_AND_ADMINISTRATION_SITE_CONDITIONS ;
        prop:denominator  "_NULL_" ;
        prop:factor       code:factor-USUBJID ;
        prop:measure      "15"^^xsd:int ;
        prop:procedure    code:procedure-countdistinct ;
        prop:saffl        code:saffl-Y ;
        prop:trta         code:trta-Xanomeline_High_Dose ;
        prop:unit         "_NULL_"^^xsd:string .

code:aedecod-NASAL_CONGESTION
        a                  code:Aedecod , skos:Concept ;
        rdfs:comment       "Coded values from data source. No reconciliation against another source"@en ;
        skos:inScheme      code:aedecod ;
        skos:prefLabel     "NASAL CONGESTION" ;
        skos:topConceptOf  code:aedecod .

ds:obs819  a              qb:Observation ;
        rdfs:label        "819" ;
        qb:dataSet        ds:dataset-AE ;
        prop:aedecod      code:aedecod-NEUTROPHIL_COUNT_INCREASED ;
        prop:aesoc        code:aesoc-INVESTIGATIONS ;
        prop:denominator  "_NULL_" ;
        prop:factor       code:factor-USUBJID ;
        prop:measure      "1"^^xsd:int ;
        prop:procedure    code:procedure-countdistinct ;
        prop:saffl        code:saffl-Y ;
        prop:trta         code:trta-Xanomeline_Low_Dose ;
        prop:unit         "_NULL_"^^xsd:string .

ds:obs399  a              qb:Observation ;
        rdfs:label        "399" ;
        qb:dataSet        ds:dataset-AE ;
        prop:aedecod      code:aedecod-NAUSEA ;
        prop:aesoc        code:aesoc-GASTROINTESTINAL_DISORDERS ;
        prop:denominator  "_NULL_" ;
        prop:factor       code:factor-quantity ;
        prop:measure      "5"^^xsd:int ;
        prop:procedure    code:procedure-count ;
        prop:saffl        code:saffl-Y ;
        prop:trta         code:trta-Xanomeline_Low_Dose ;
        prop:unit         "_NULL_"^^xsd:string .

ds:obs690  a              qb:Observation ;
        rdfs:label        "690" ;
        qb:dataSet        ds:dataset-AE ;
        prop:aedecod      code:aedecod-FLANK_PAIN ;
        prop:aesoc        code:aesoc-MUSCULOSKELETAL_AND_CONNECTIVE_TISSUE_DISORDERS ;
        prop:denominator  "_NULL_" ;
        prop:factor       code:factor-USUBJID ;
        prop:measure      "2"^^xsd:int ;
        prop:procedure    code:procedure-countdistinct ;
        prop:saffl        code:saffl-Y ;
        prop:trta         code:trta-Xanomeline_High_Dose ;
        prop:unit         "_NULL_"^^xsd:string .

ds:obs146  a              qb:Observation ;
        rdfs:label        "146" ;
        qb:dataSet        ds:dataset-AE ;
        prop:aedecod      code:aedecod-EYE_PRURITUS ;
        prop:aesoc        code:aesoc-EYE_DISORDERS ;
        prop:denominator  "_NULL_" ;
        prop:factor       code:factor-quantity ;
        prop:measure      "1"^^xsd:int ;
        prop:procedure    code:procedure-count ;
        prop:saffl        code:saffl-Y ;
        prop:trta         code:trta-Placebo ;
        prop:unit         "_NULL_"^^xsd:string .

code:aedecod-JOINT_DISLOCATION
        a                  code:Aedecod , skos:Concept ;
        rdfs:comment       "Coded values from data source. No reconciliation against another source"@en ;
        skos:inScheme      code:aedecod ;
        skos:prefLabel     "JOINT DISLOCATION" ;
        skos:topConceptOf  code:aedecod .

ds:obs865  a              qb:Observation ;
        rdfs:label        "865" ;
        qb:dataSet        ds:dataset-AE ;
        prop:aedecod      code:aedecod-RASH ;
        prop:aesoc        code:aesoc-SKIN_AND_SUBCUTANEOUS_TISSUE_DISORDERS ;
        prop:denominator  "_NULL_" ;
        prop:factor       code:factor-USUBJID ;
        prop:measure      "13"^^xsd:int ;
        prop:procedure    code:procedure-countdistinct ;
        prop:saffl        code:saffl-Y ;
        prop:trta         code:trta-Xanomeline_Low_Dose ;
        prop:unit         "_NULL_"^^xsd:string .

code:procedure  a             skos:ConceptScheme ;
        rdfs:label            "Codelist scheme: procedure"@en ;
        rrdfqbcrnd0:codeType  "DATA" ;
        skos:hasTopConcept    code:procedure-countdistinct , code:procedure-count ;
        skos:notation         "CL_PROCEDURE" ;
        skos:note             "Specifies the procedure for each observation, group of obs. or all categories (_ALL_)label "@en ;
        skos:prefLabel        "Codelist scheme: procedure"@en .

ds:obs612  a              qb:Observation ;
        rdfs:label        "612" ;
        qb:dataSet        ds:dataset-AE ;
        prop:aedecod      code:aedecod-HYPERHIDROSIS ;
        prop:aesoc        code:aesoc-SKIN_AND_SUBCUTANEOUS_TISSUE_DISORDERS ;
        prop:denominator  "_NULL_" ;
        prop:factor       code:factor-USUBJID ;
        prop:measure      "2"^^xsd:int ;
        prop:procedure    code:procedure-countdistinct ;
        prop:saffl        code:saffl-Y ;
        prop:trta         code:trta-Placebo ;
        prop:unit         "_NULL_"^^xsd:string .

ds:obs367  a              qb:Observation ;
        rdfs:label        "367" ;
        qb:dataSet        ds:dataset-AE ;
        prop:aedecod      code:aedecod-RASH_MACULO-PAPULAR ;
        prop:aesoc        code:aesoc-SKIN_AND_SUBCUTANEOUS_TISSUE_DISORDERS ;
        prop:denominator  "_NULL_" ;
        prop:factor       code:factor-quantity ;
        prop:measure      "3"^^xsd:int ;
        prop:procedure    code:procedure-count ;
        prop:saffl        code:saffl-Y ;
        prop:trta         code:trta-Xanomeline_High_Dose ;
        prop:unit         "_NULL_"^^xsd:string .

ds:obs192  a              qb:Observation ;
        rdfs:label        "192" ;
        qb:dataSet        ds:dataset-AE ;
        prop:aedecod      code:aedecod-ELECTROCARDIOGRAM_ST_SEGMENT_DEPRESSION ;
        prop:aesoc        code:aesoc-INVESTIGATIONS ;
        prop:denominator  "_NULL_" ;
        prop:factor       code:factor-quantity ;
        prop:measure      "4"^^xsd:int ;
        prop:procedure    code:procedure-count ;
        prop:saffl        code:saffl-Y ;
        prop:trta         code:trta-Placebo ;
        prop:unit         "_NULL_"^^xsd:string .

code:aedecod-TACHYCARDIA
        a                  code:Aedecod , skos:Concept ;
        rdfs:comment       "Coded values from data source. No reconciliation against another source"@en ;
        skos:inScheme      code:aedecod ;
        skos:prefLabel     "TACHYCARDIA" ;
        skos:topConceptOf  code:aedecod .

code:aesoc-PSYCHIATRIC_DISORDERS
        a                  code:Aesoc , skos:Concept ;
        rdfs:comment       "Coded values from data source. No reconciliation against another source"@en ;
        skos:inScheme      code:aesoc ;
        skos:prefLabel     "PSYCHIATRIC DISORDERS" ;
        skos:topConceptOf  code:aesoc .

code:aedecod-CARDIAC_DISORDER
        a                  code:Aedecod , skos:Concept ;
        rdfs:comment       "Coded values from data source. No reconciliation against another source"@en ;
        skos:inScheme      code:aedecod ;
        skos:prefLabel     "CARDIAC DISORDER" ;
        skos:topConceptOf  code:aedecod .

code:aedecod-MYOCARDIAL_INFARCTION
        a                  code:Aedecod , skos:Concept ;
        rdfs:comment       "Coded values from data source. No reconciliation against another source"@en ;
        skos:inScheme      code:aedecod ;
        skos:prefLabel     "MYOCARDIAL INFARCTION" ;
        skos:topConceptOf  code:aedecod .

ds:obs114  a              qb:Observation ;
        rdfs:label        "114" ;
        qb:dataSet        ds:dataset-AE ;
        prop:aedecod      code:aedecod-_ALL_ ;
        prop:aesoc        code:aesoc-GENERAL_DISORDERS_AND_ADMINISTRATION_SITE_CONDITIONS ;
        prop:denominator  "_NULL_" ;
        prop:factor       code:factor-USUBJID ;
        prop:measure      "47"^^xsd:int ;
        prop:procedure    code:procedure-countdistinct ;
        prop:saffl        code:saffl-Y ;
        prop:trta         code:trta-Xanomeline_Low_Dose ;
        prop:unit         "_NULL_"^^xsd:string .

ds:obs833  a              qb:Observation ;
        rdfs:label        "833" ;
        qb:dataSet        ds:dataset-AE ;
        prop:aedecod      code:aedecod-DIZZINESS ;
        prop:aesoc        code:aesoc-NERVOUS_SYSTEM_DISORDERS ;
        prop:denominator  "_NULL_" ;
        prop:factor       code:factor-USUBJID ;
        prop:measure      "8"^^xsd:int ;
        prop:procedure    code:procedure-countdistinct ;
        prop:saffl        code:saffl-Y ;
        prop:trta         code:trta-Xanomeline_Low_Dose ;
        prop:unit         "_NULL_"^^xsd:string .

ds:obs160  a              qb:Observation ;
        rdfs:label        "160" ;
        qb:dataSet        ds:dataset-AE ;
        prop:aedecod      code:aedecod-APPLICATION_SITE_ERYTHEMA ;
        prop:aesoc        code:aesoc-GENERAL_DISORDERS_AND_ADMINISTRATION_SITE_CONDITIONS ;
        prop:denominator  "_NULL_" ;
        prop:factor       code:factor-quantity ;
        prop:measure      "3"^^xsd:int ;
        prop:procedure    code:procedure-count ;
        prop:saffl        code:saffl-Y ;
        prop:trta         code:trta-Placebo ;
        prop:unit         "_NULL_"^^xsd:string .

ds:obs588  a              qb:Observation ;
        rdfs:label        "588" ;
        qb:dataSet        ds:dataset-AE ;
        prop:aedecod      code:aedecod-COMPLETED_SUICIDE ;
        prop:aesoc        code:aesoc-PSYCHIATRIC_DISORDERS ;
        prop:denominator  "_NULL_" ;
        prop:factor       code:factor-USUBJID ;
        prop:measure      "1"^^xsd:int ;
        prop:procedure    code:procedure-countdistinct ;
        prop:saffl        code:saffl-Y ;
        prop:trta         code:trta-Placebo ;
        prop:unit         "_NULL_"^^xsd:string .

ds:obs335  a              qb:Observation ;
        rdfs:label        "335" ;
        qb:dataSet        ds:dataset-AE ;
        prop:aedecod      code:aedecod-AGITATION ;
        prop:aesoc        code:aesoc-PSYCHIATRIC_DISORDERS ;
        prop:denominator  "_NULL_" ;
        prop:factor       code:factor-quantity ;
        prop:measure      "1"^^xsd:int ;
        prop:procedure    code:procedure-count ;
        prop:saffl        code:saffl-Y ;
        prop:trta         code:trta-Xanomeline_High_Dose ;
        prop:unit         "_NULL_"^^xsd:string .

code:aedecod-RESPIRATORY_TRACT_CONGESTION
        a                  code:Aedecod , skos:Concept ;
        rdfs:comment       "Coded values from data source. No reconciliation against another source"@en ;
        skos:inScheme      code:aedecod ;
        skos:prefLabel     "RESPIRATORY TRACT CONGESTION" ;
        skos:topConceptOf  code:aedecod .

ds:obs801  a              qb:Observation ;
        rdfs:label        "801" ;
        qb:dataSet        ds:dataset-AE ;
        prop:aedecod      code:aedecod-LOCALISED_INFECTION ;
        prop:aesoc        code:aesoc-INFECTIONS_AND_INFESTATIONS ;
        prop:denominator  "_NULL_" ;
        prop:factor       code:factor-USUBJID ;
        prop:measure      "1"^^xsd:int ;
        prop:procedure    code:procedure-countdistinct ;
        prop:saffl        code:saffl-Y ;
        prop:trta         code:trta-Xanomeline_Low_Dose ;
        prop:unit         "_NULL_"^^xsd:string .

code:aedecod-ELECTROCARDIOGRAM_T_WAVE_AMPLITUDE_DECREASED
        a                  code:Aedecod , skos:Concept ;
        rdfs:comment       "Coded values from data source. No reconciliation against another source"@en ;
        skos:inScheme      code:aedecod ;
        skos:prefLabel     "ELECTROCARDIOGRAM T WAVE AMPLITUDE DECREASED" ;
        skos:topConceptOf  code:aedecod .

ds:obs381  a              qb:Observation ;
        rdfs:label        "381" ;
        qb:dataSet        ds:dataset-AE ;
        prop:aedecod      code:aedecod-BUNDLE_BRANCH_BLOCK_RIGHT ;
        prop:aesoc        code:aesoc-CARDIAC_DISORDERS ;
        prop:denominator  "_NULL_" ;
        prop:factor       code:factor-quantity ;
        prop:measure      "1"^^xsd:int ;
        prop:procedure    code:procedure-count ;
        prop:saffl        code:saffl-Y ;
        prop:trta         code:trta-Xanomeline_Low_Dose ;
        prop:unit         "_NULL_"^^xsd:string .

ds:obs556  a              qb:Observation ;
        rdfs:label        "556" ;
        qb:dataSet        ds:dataset-AE ;
        prop:aedecod      code:aedecod-CONTUSION ;
        prop:aesoc        code:aesoc-INJURY__POISONING_AND_PROCEDURAL_COMPLICATIONS ;
        prop:denominator  "_NULL_" ;
        prop:factor       code:factor-USUBJID ;
        prop:measure      "1"^^xsd:int ;
        prop:procedure    code:procedure-countdistinct ;
        prop:saffl        code:saffl-Y ;
        prop:trta         code:trta-Placebo ;
        prop:unit         "_NULL_"^^xsd:string .

ds:obs303  a              qb:Observation ;
        rdfs:label        "303" ;
        qb:dataSet        ds:dataset-AE ;
        prop:aedecod      code:aedecod-FALL ;
        prop:aesoc        code:aesoc-INJURY__POISONING_AND_PROCEDURAL_COMPLICATIONS ;
        prop:denominator  "_NULL_" ;
        prop:factor       code:factor-quantity ;
        prop:measure      "1"^^xsd:int ;
        prop:procedure    code:procedure-count ;
        prop:saffl        code:saffl-Y ;
        prop:trta         code:trta-Xanomeline_High_Dose ;
        prop:unit         "_NULL_"^^xsd:string .

ds:obs86  a               qb:Observation ;
        rdfs:label        "86" ;
        qb:dataSet        ds:dataset-AE ;
        prop:aedecod      code:aedecod-_ALL_ ;
        prop:aesoc        code:aesoc-VASCULAR_DISORDERS ;
        prop:denominator  "_NULL_" ;
        prop:factor       code:factor-USUBJID ;
        prop:measure      "3"^^xsd:int ;
        prop:procedure    code:procedure-countdistinct ;
        prop:saffl        code:saffl-Y ;
        prop:trta         code:trta-Placebo ;
        prop:unit         "_NULL_"^^xsd:string .

ds:obs777  a              qb:Observation ;
        rdfs:label        "777" ;
        qb:dataSet        ds:dataset-AE ;
        prop:aedecod      code:aedecod-APPLICATION_SITE_DESQUAMATION ;
        prop:aesoc        code:aesoc-GENERAL_DISORDERS_AND_ADMINISTRATION_SITE_CONDITIONS ;
        prop:denominator  "_NULL_" ;
        prop:factor       code:factor-USUBJID ;
        prop:measure      "1"^^xsd:int ;
        prop:procedure    code:procedure-countdistinct ;
        prop:saffl        code:saffl-Y ;
        prop:trta         code:trta-Xanomeline_Low_Dose ;
        prop:unit         "_NULL_"^^xsd:string .

ds:obs524  a              qb:Observation ;
        rdfs:label        "524" ;
        qb:dataSet        ds:dataset-AE ;
        prop:aedecod      code:aedecod-DIARRHOEA ;
        prop:aesoc        code:aesoc-GASTROINTESTINAL_DISORDERS ;
        prop:denominator  "_NULL_" ;
        prop:factor       code:factor-USUBJID ;
        prop:measure      "9"^^xsd:int ;
        prop:procedure    code:procedure-countdistinct ;
        prop:saffl        code:saffl-Y ;
        prop:trta         code:trta-Placebo ;
        prop:unit         "_NULL_"^^xsd:string .

ds:obs54  a               qb:Observation ;
        rdfs:label        "54" ;
        qb:dataSet        ds:dataset-AE ;
        prop:aedecod      code:aedecod-_ALL_ ;
        prop:aesoc        code:aesoc-IMMUNE_SYSTEM_DISORDERS ;
        prop:denominator  "_NULL_" ;
        prop:factor       code:factor-quantity ;
        prop:measure      "2"^^xsd:int ;
        prop:procedure    code:procedure-count ;
        prop:saffl        code:saffl-Y ;
        prop:trta         code:trta-Xanomeline_Low_Dose ;
        prop:unit         "_NULL_"^^xsd:string .

code:aedecod-RASH_MACULO-PAPULAR
        a                  code:Aedecod , skos:Concept ;
        rdfs:comment       "Coded values from data source. No reconciliation against another source"@en ;
        skos:inScheme      code:aedecod ;
        skos:prefLabel     "RASH MACULO-PAPULAR" ;
        skos:topConceptOf  code:aedecod .

code:aedecod-VISION_BLURRED
        a                  code:Aedecod , skos:Concept ;
        rdfs:comment       "Coded values from data source. No reconciliation against another source"@en ;
        skos:inScheme      code:aedecod ;
        skos:prefLabel     "VISION BLURRED" ;
        skos:topConceptOf  code:aedecod .

ds:obs279  a              qb:Observation ;
        rdfs:label        "279" ;
        qb:dataSet        ds:dataset-AE ;
        prop:aedecod      code:aedecod-APPLICATION_SITE_VESICLES ;
        prop:aesoc        code:aesoc-GENERAL_DISORDERS_AND_ADMINISTRATION_SITE_CONDITIONS ;
        prop:denominator  "_NULL_" ;
        prop:factor       code:factor-quantity ;
        prop:measure      "6"^^xsd:int ;
        prop:procedure    code:procedure-count ;
        prop:saffl        code:saffl-Y ;
        prop:trta         code:trta-Xanomeline_High_Dose ;
        prop:unit         "_NULL_"^^xsd:string .

ds:obs570  a              qb:Observation ;
        rdfs:label        "570" ;
        qb:dataSet        ds:dataset-AE ;
        prop:aedecod      code:aedecod-DECREASED_APPETITE ;
        prop:aesoc        code:aesoc-METABOLISM_AND_NUTRITION_DISORDERS ;
        prop:denominator  "_NULL_" ;
        prop:factor       code:factor-USUBJID ;
        prop:measure      "1"^^xsd:int ;
        prop:procedure    code:procedure-countdistinct ;
        prop:saffl        code:saffl-Y ;
        prop:trta         code:trta-Placebo ;
        prop:unit         "_NULL_"^^xsd:string .

ds:obs745  a              qb:Observation ;
        rdfs:label        "745" ;
        qb:dataSet        ds:dataset-AE ;
        prop:aedecod      code:aedecod-URTICARIA ;
        prop:aesoc        code:aesoc-SKIN_AND_SUBCUTANEOUS_TISSUE_DISORDERS ;
        prop:denominator  "_NULL_" ;
        prop:factor       code:factor-USUBJID ;
        prop:measure      "1"^^xsd:int ;
        prop:procedure    code:procedure-countdistinct ;
        prop:saffl        code:saffl-Y ;
        prop:trta         code:trta-Xanomeline_High_Dose ;
        prop:unit         "_NULL_"^^xsd:string .

ds:obs22  a               qb:Observation ;
        rdfs:label        "22" ;
        qb:dataSet        ds:dataset-AE ;
        prop:aedecod      code:aedecod-_ALL_ ;
        prop:aesoc        code:aesoc-RESPIRATORY__THORACIC_AND_MEDIASTINAL_DISORDERS ;
        prop:denominator  "_NULL_" ;
        prop:factor       code:factor-quantity ;
        prop:measure      "15"^^xsd:int ;
        prop:procedure    code:procedure-count ;
        prop:saffl        code:saffl-Y ;
        prop:trta         code:trta-Placebo ;
        prop:unit         "_NULL_"^^xsd:string .

ds:obs791  a              qb:Observation ;
        rdfs:label        "791" ;
        qb:dataSet        ds:dataset-AE ;
        prop:aedecod      code:aedecod-OEDEMA ;
        prop:aesoc        code:aesoc-GENERAL_DISORDERS_AND_ADMINISTRATION_SITE_CONDITIONS ;
        prop:denominator  "_NULL_" ;
        prop:factor       code:factor-USUBJID ;
        prop:measure      "2"^^xsd:int ;
        prop:procedure    code:procedure-countdistinct ;
        prop:saffl        code:saffl-Y ;
        prop:trta         code:trta-Xanomeline_Low_Dose ;
        prop:unit         "_NULL_"^^xsd:string .

ds:obs247  a              qb:Observation ;
        rdfs:label        "247" ;
        qb:dataSet        ds:dataset-AE ;
        prop:aedecod      code:aedecod-HYPOTENSION ;
        prop:aesoc        code:aesoc-VASCULAR_DISORDERS ;
        prop:denominator  "_NULL_" ;
        prop:factor       code:factor-quantity ;
        prop:measure      "3"^^xsd:int ;
        prop:procedure    code:procedure-count ;
        prop:saffl        code:saffl-Y ;
        prop:trta         code:trta-Placebo ;
        prop:unit         "_NULL_"^^xsd:string .

code:aedecod-CHILLS  a     code:Aedecod , skos:Concept ;
        rdfs:comment       "Coded values from data source. No reconciliation against another source"@en ;
        skos:inScheme      code:aedecod ;
        skos:prefLabel     "CHILLS" ;
        skos:topConceptOf  code:aedecod .

ds:obs713  a              qb:Observation ;
        rdfs:label        "713" ;
        qb:dataSet        ds:dataset-AE ;
        prop:aedecod      code:aedecod-HALLUCINATION ;
        prop:aesoc        code:aesoc-PSYCHIATRIC_DISORDERS ;
        prop:denominator  "_NULL_" ;
        prop:factor       code:factor-USUBJID ;
        prop:measure      "1"^^xsd:int ;
        prop:procedure    code:procedure-countdistinct ;
        prop:saffl        code:saffl-Y ;
        prop:trta         code:trta-Xanomeline_High_Dose ;
        prop:unit         "_NULL_"^^xsd:string .

code:aedecod-CONFUSIONAL_STATE
        a                  code:Aedecod , skos:Concept ;
        rdfs:comment       "Coded values from data source. No reconciliation against another source"@en ;
        skos:inScheme      code:aedecod ;
        skos:prefLabel     "CONFUSIONAL STATE" ;
        skos:topConceptOf  code:aedecod .

ds:obs293  a              qb:Observation ;
        rdfs:label        "293" ;
        qb:dataSet        ds:dataset-AE ;
        prop:aedecod      code:aedecod-HORDEOLUM ;
        prop:aesoc        code:aesoc-INFECTIONS_AND_INFESTATIONS ;
        prop:denominator  "_NULL_" ;
        prop:factor       code:factor-quantity ;
        prop:measure      "1"^^xsd:int ;
        prop:procedure    code:procedure-count ;
        prop:saffl        code:saffl-Y ;
        prop:trta         code:trta-Xanomeline_High_Dose ;
        prop:unit         "_NULL_"^^xsd:string .

ds:obs468  a              qb:Observation ;
        rdfs:label        "468" ;
        qb:dataSet        ds:dataset-AE ;
        prop:aedecod      code:aedecod-TRANSIENT_ISCHAEMIC_ATTACK ;
        prop:aesoc        code:aesoc-NERVOUS_SYSTEM_DISORDERS ;
        prop:denominator  "_NULL_" ;
        prop:factor       code:factor-quantity ;
        prop:measure      "3"^^xsd:int ;
        prop:procedure    code:procedure-count ;
        prop:saffl        code:saffl-Y ;
        prop:trta         code:trta-Xanomeline_Low_Dose ;
        prop:unit         "_NULL_"^^xsd:string .

ds:obs215  a              qb:Observation ;
        rdfs:label        "215" ;
        qb:dataSet        ds:dataset-AE ;
        prop:aedecod      code:aedecod-COMPLETED_SUICIDE ;
        prop:aesoc        code:aesoc-PSYCHIATRIC_DISORDERS ;
        prop:denominator  "_NULL_" ;
        prop:factor       code:factor-quantity ;
        prop:measure      "1"^^xsd:int ;
        prop:procedure    code:procedure-count ;
        prop:saffl        code:saffl-Y ;
        prop:trta         code:trta-Placebo ;
        prop:unit         "_NULL_"^^xsd:string .

code:aedecod-URTICARIA
        a                  code:Aedecod , skos:Concept ;
        rdfs:comment       "Coded values from data source. No reconciliation against another source"@en ;
        skos:inScheme      code:aedecod ;
        skos:prefLabel     "URTICARIA" ;
        skos:topConceptOf  code:aedecod .

ds:obs261  a              qb:Observation ;
        rdfs:label        "261" ;
        qb:dataSet        ds:dataset-AE ;
        prop:aedecod      code:aedecod-ABDOMINAL_PAIN ;
        prop:aesoc        code:aesoc-GASTROINTESTINAL_DISORDERS ;
        prop:denominator  "_NULL_" ;
        prop:factor       code:factor-quantity ;
        prop:measure      "2"^^xsd:int ;
        prop:procedure    code:procedure-count ;
        prop:saffl        code:saffl-Y ;
        prop:trta         code:trta-Xanomeline_High_Dose ;
        prop:unit         "_NULL_"^^xsd:string .

ds:obs689  a              qb:Observation ;
        rdfs:label        "689" ;
        qb:dataSet        ds:dataset-AE ;
        prop:aedecod      code:aedecod-BACK_PAIN ;
        prop:aesoc        code:aesoc-MUSCULOSKELETAL_AND_CONNECTIVE_TISSUE_DISORDERS ;
        prop:denominator  "_NULL_" ;
        prop:factor       code:factor-USUBJID ;
        prop:measure      "3"^^xsd:int ;
        prop:procedure    code:procedure-countdistinct ;
        prop:saffl        code:saffl-Y ;
        prop:trta         code:trta-Xanomeline_High_Dose ;
        prop:unit         "_NULL_"^^xsd:string .

ds:obs436  a              qb:Observation ;
        rdfs:label        "436" ;
        qb:dataSet        ds:dataset-AE ;
        prop:aedecod      code:aedecod-FALL ;
        prop:aesoc        code:aesoc-INJURY__POISONING_AND_PROCEDURAL_COMPLICATIONS ;
        prop:denominator  "_NULL_" ;
        prop:factor       code:factor-quantity ;
        prop:measure      "2"^^xsd:int ;
        prop:procedure    code:procedure-count ;
        prop:saffl        code:saffl-Y ;
        prop:trta         code:trta-Xanomeline_Low_Dose ;
        prop:unit         "_NULL_"^^xsd:string .

code:aedecod-LIBIDO_DECREASED
        a                  code:Aedecod , skos:Concept ;
        rdfs:comment       "Coded values from data source. No reconciliation against another source"@en ;
        skos:inScheme      code:aedecod ;
        skos:prefLabel     "LIBIDO DECREASED" ;
        skos:topConceptOf  code:aedecod .

code:aedecod-HYPERSENSITIVITY
        a                  code:Aedecod , skos:Concept ;
        rdfs:comment       "Coded values from data source. No reconciliation against another source"@en ;
        skos:inScheme      code:aedecod ;
        skos:prefLabel     "HYPERSENSITIVITY" ;
        skos:topConceptOf  code:aedecod .

code:Aesoc  a            rdfs:Class , owl:Class ;
        rdfs:comment     "Specifies the aesoc for each observation"@en ;
        rdfs:label       "Class for code list: aesoc"@en ;
        rdfs:seeAlso     code:aesoc ;
        rdfs:subClassOf  skos:Concept .

ds:obs482  a              qb:Observation ;
        rdfs:label        "482" ;
        qb:dataSet        ds:dataset-AE ;
        prop:aedecod      code:aedecod-EPISTAXIS ;
        prop:aesoc        code:aesoc-RESPIRATORY__THORACIC_AND_MEDIASTINAL_DISORDERS ;
        prop:denominator  "_NULL_" ;
        prop:factor       code:factor-quantity ;
        prop:measure      "1"^^xsd:int ;
        prop:procedure    code:procedure-count ;
        prop:saffl        code:saffl-Y ;
        prop:trta         code:trta-Xanomeline_Low_Dose ;
        prop:unit         "_NULL_"^^xsd:string .

ds:obs657  a              qb:Observation ;
        rdfs:label        "657" ;
        qb:dataSet        ds:dataset-AE ;
        prop:aedecod      code:aedecod-FATIGUE ;
        prop:aesoc        code:aesoc-GENERAL_DISORDERS_AND_ADMINISTRATION_SITE_CONDITIONS ;
        prop:denominator  "_NULL_" ;
        prop:factor       code:factor-USUBJID ;
        prop:measure      "5"^^xsd:int ;
        prop:procedure    code:procedure-countdistinct ;
        prop:saffl        code:saffl-Y ;
        prop:trta         code:trta-Xanomeline_High_Dose ;
        prop:unit         "_NULL_"^^xsd:string .

code:aedecod-APPLICATION_SITE_URTICARIA
        a                  code:Aedecod , skos:Concept ;
        rdfs:comment       "Coded values from data source. No reconciliation against another source"@en ;
        skos:inScheme      code:aedecod ;
        skos:prefLabel     "APPLICATION SITE URTICARIA" ;
        skos:topConceptOf  code:aedecod .

ds:obs404  a              qb:Observation ;
        rdfs:label        "404" ;
        qb:dataSet        ds:dataset-AE ;
        prop:aedecod      code:aedecod-APPLICATION_SITE_DESQUAMATION ;
        prop:aesoc        code:aesoc-GENERAL_DISORDERS_AND_ADMINISTRATION_SITE_CONDITIONS ;
        prop:denominator  "_NULL_" ;
        prop:factor       code:factor-quantity ;
        prop:measure      "1"^^xsd:int ;
        prop:procedure    code:procedure-count ;
        prop:saffl        code:saffl-Y ;
        prop:trta         code:trta-Xanomeline_Low_Dose ;
        prop:unit         "_NULL_"^^xsd:string .

code:aedecod-CONTUSION
        a                  code:Aedecod , skos:Concept ;
        rdfs:comment       "Coded values from data source. No reconciliation against another source"@en ;
        skos:inScheme      code:aedecod ;
        skos:prefLabel     "CONTUSION" ;
        skos:topConceptOf  code:aedecod .

ds:obs159  a              qb:Observation ;
        rdfs:label        "159" ;
        qb:dataSet        ds:dataset-AE ;
        prop:aedecod      code:aedecod-APPLICATION_SITE_DERMATITIS ;
        prop:aesoc        code:aesoc-GENERAL_DISORDERS_AND_ADMINISTRATION_SITE_CONDITIONS ;
        prop:denominator  "_NULL_" ;
        prop:factor       code:factor-quantity ;
        prop:measure      "9"^^xsd:int ;
        prop:procedure    code:procedure-count ;
        prop:saffl        code:saffl-Y ;
        prop:trta         code:trta-Placebo ;
        prop:unit         "_NULL_"^^xsd:string .

ds:obs450  a              qb:Observation ;
        rdfs:label        "450" ;
        qb:dataSet        ds:dataset-AE ;
        prop:aedecod      code:aedecod-ARTHRALGIA ;
        prop:aesoc        code:aesoc-MUSCULOSKELETAL_AND_CONNECTIVE_TISSUE_DISORDERS ;
        prop:denominator  "_NULL_" ;
        prop:factor       code:factor-quantity ;
        prop:measure      "4"^^xsd:int ;
        prop:procedure    code:procedure-count ;
        prop:saffl        code:saffl-Y ;
        prop:trta         code:trta-Xanomeline_Low_Dose ;
        prop:unit         "_NULL_"^^xsd:string .

ds:obs625  a              qb:Observation ;
        rdfs:label        "625" ;
        qb:dataSet        ds:dataset-AE ;
        prop:aedecod      code:aedecod-CARDIAC_DISORDER ;
        prop:aesoc        code:aesoc-CARDIAC_DISORDERS ;
        prop:denominator  "_NULL_" ;
        prop:factor       code:factor-USUBJID ;
        prop:measure      "1"^^xsd:int ;
        prop:procedure    code:procedure-countdistinct ;
        prop:saffl        code:saffl-Y ;
        prop:trta         code:trta-Xanomeline_High_Dose ;
        prop:unit         "_NULL_"^^xsd:string .

ds:obs671  a              qb:Observation ;
        rdfs:label        "671" ;
        qb:dataSet        ds:dataset-AE ;
        prop:aedecod      code:aedecod-UPPER_RESPIRATORY_TRACT_INFECTION ;
        prop:aesoc        code:aesoc-INFECTIONS_AND_INFESTATIONS ;
        prop:denominator  "_NULL_" ;
        prop:factor       code:factor-USUBJID ;
        prop:measure      "3"^^xsd:int ;
        prop:procedure    code:procedure-countdistinct ;
        prop:saffl        code:saffl-Y ;
        prop:trta         code:trta-Xanomeline_High_Dose ;
        prop:unit         "_NULL_"^^xsd:string .

ds:obs127  a              qb:Observation ;
        rdfs:label        "127" ;
        qb:dataSet        ds:dataset-AE ;
        prop:aedecod      code:aedecod-_ALL_ ;
        prop:aesoc        code:aesoc-SURGICAL_AND_MEDICAL_PROCEDURES ;
        prop:denominator  "_NULL_" ;
        prop:factor       code:factor-USUBJID ;
        prop:measure      "1"^^xsd:int ;
        prop:procedure    code:procedure-countdistinct ;
        prop:saffl        code:saffl-Y ;
        prop:trta         code:trta-Xanomeline_Low_Dose ;
        prop:unit         "_NULL_"^^xsd:string .

code:Saffl  a            rdfs:Class , owl:Class ;
        rdfs:comment     "Specifies the saffl for each observation"@en ;
        rdfs:label       "Class for code list: saffl"@en ;
        rdfs:seeAlso     code:saffl ;
        rdfs:subClassOf  skos:Concept .

ds:obs846  a              qb:Observation ;
        rdfs:label        "846" ;
        qb:dataSet        ds:dataset-AE ;
        prop:aedecod      code:aedecod-IRRITABILITY ;
        prop:aesoc        code:aesoc-PSYCHIATRIC_DISORDERS ;
        prop:denominator  "_NULL_" ;
        prop:factor       code:factor-USUBJID ;
        prop:measure      "1"^^xsd:int ;
        prop:procedure    code:procedure-countdistinct ;
        prop:saffl        code:saffl-Y ;
        prop:trta         code:trta-Xanomeline_Low_Dose ;
        prop:unit         "_NULL_"^^xsd:string .

code:aedecod-BUNDLE_BRANCH_BLOCK_LEFT
        a                  code:Aedecod , skos:Concept ;
        rdfs:comment       "Coded values from data source. No reconciliation against another source"@en ;
        skos:inScheme      code:aedecod ;
        skos:prefLabel     "BUNDLE BRANCH BLOCK LEFT" ;
        skos:topConceptOf  code:aedecod .

ds:obs173  a              qb:Observation ;
        rdfs:label        "173" ;
        qb:dataSet        ds:dataset-AE ;
        prop:aedecod      code:aedecod-CERVICITIS ;
        prop:aesoc        code:aesoc-INFECTIONS_AND_INFESTATIONS ;
        prop:denominator  "_NULL_" ;
        prop:factor       code:factor-quantity ;
        prop:measure      "2"^^xsd:int ;
        prop:procedure    code:procedure-count ;
        prop:saffl        code:saffl-Y ;
        prop:trta         code:trta-Placebo ;
        prop:unit         "_NULL_"^^xsd:string .

ds:obs348  a              qb:Observation ;
        rdfs:label        "348" ;
        qb:dataSet        ds:dataset-AE ;
        prop:aedecod      code:aedecod-NEPHROLITHIASIS ;
        prop:aesoc        code:aesoc-RENAL_AND_URINARY_DISORDERS ;
        prop:denominator  "_NULL_" ;
        prop:factor       code:factor-quantity ;
        prop:measure      "1"^^xsd:int ;
        prop:procedure    code:procedure-count ;
        prop:saffl        code:saffl-Y ;
        prop:trta         code:trta-Xanomeline_High_Dose ;
        prop:unit         "_NULL_"^^xsd:string .

code:aedecod-TINNITUS
        a                  code:Aedecod , skos:Concept ;
        rdfs:comment       "Coded values from data source. No reconciliation against another source"@en ;
        skos:inScheme      code:aedecod ;
        skos:prefLabel     "TINNITUS" ;
        skos:topConceptOf  code:aedecod .

ds:obs814  a              qb:Observation ;
        rdfs:label        "814" ;
        qb:dataSet        ds:dataset-AE ;
        prop:aedecod      code:aedecod-BODY_TEMPERATURE_INCREASED ;
        prop:aesoc        code:aesoc-INVESTIGATIONS ;
        prop:denominator  "_NULL_" ;
        prop:factor       code:factor-USUBJID ;
        prop:measure      "1"^^xsd:int ;
        prop:procedure    code:procedure-countdistinct ;
        prop:saffl        code:saffl-Y ;
        prop:trta         code:trta-Xanomeline_Low_Dose ;
        prop:unit         "_NULL_"^^xsd:string .

ds:obs394  a              qb:Observation ;
        rdfs:label        "394" ;
        qb:dataSet        ds:dataset-AE ;
        prop:aedecod      code:aedecod-VISION_BLURRED ;
        prop:aesoc        code:aesoc-EYE_DISORDERS ;
        prop:denominator  "_NULL_" ;
        prop:factor       code:factor-quantity ;
        prop:measure      "1"^^xsd:int ;
        prop:procedure    code:procedure-count ;
        prop:saffl        code:saffl-Y ;
        prop:trta         code:trta-Xanomeline_Low_Dose ;
        prop:unit         "_NULL_"^^xsd:string .

code:aedecod-GLOSSITIS
        a                  code:Aedecod , skos:Concept ;
        rdfs:comment       "Coded values from data source. No reconciliation against another source"@en ;
        skos:inScheme      code:aedecod ;
        skos:prefLabel     "GLOSSITIS" ;
        skos:topConceptOf  code:aedecod .

ds:obs6  a                qb:Observation ;
        rdfs:label        "6" ;
        qb:dataSet        ds:dataset-AE ;
        prop:aedecod      code:aedecod-_ALL_ ;
        prop:aesoc        code:aesoc-_ALL_ ;
        prop:denominator  "_NULL_" ;
        prop:factor       code:factor-USUBJID ;
        prop:measure      "77"^^xsd:int ;
        prop:procedure    code:procedure-countdistinct ;
        prop:saffl        code:saffl-Y ;
        prop:trta         code:trta-Xanomeline_Low_Dose ;
        prop:unit         "_NULL_"^^xsd:string .

ds:obs860  a              qb:Observation ;
        rdfs:label        "860" ;
        qb:dataSet        ds:dataset-AE ;
        prop:aedecod      code:aedecod-DERMATITIS_CONTACT ;
        prop:aesoc        code:aesoc-SKIN_AND_SUBCUTANEOUS_TISSUE_DISORDERS ;
        prop:denominator  "_NULL_" ;
        prop:factor       code:factor-USUBJID ;
        prop:measure      "1"^^xsd:int ;
        prop:procedure    code:procedure-countdistinct ;
        prop:saffl        code:saffl-Y ;
        prop:trta         code:trta-Xanomeline_Low_Dose ;
        prop:unit         "_NULL_"^^xsd:string .

ds:obs141  a              qb:Observation ;
        rdfs:label        "141" ;
        qb:dataSet        ds:dataset-AE ;
        prop:aedecod      code:aedecod-TACHYCARDIA ;
        prop:aesoc        code:aesoc-CARDIAC_DISORDERS ;
        prop:denominator  "_NULL_" ;
        prop:factor       code:factor-quantity ;
        prop:measure      "2"^^xsd:int ;
        prop:procedure    code:procedure-count ;
        prop:saffl        code:saffl-Y ;
        prop:trta         code:trta-Placebo ;
        prop:unit         "_NULL_"^^xsd:string .

ds:obs569  a              qb:Observation ;
        rdfs:label        "569" ;
        qb:dataSet        ds:dataset-AE ;
        prop:aedecod      code:aedecod-HEART_RATE_IRREGULAR ;
        prop:aesoc        code:aesoc-INVESTIGATIONS ;
        prop:denominator  "_NULL_" ;
        prop:factor       code:factor-USUBJID ;
        prop:measure      "1"^^xsd:int ;
        prop:procedure    code:procedure-countdistinct ;
        prop:saffl        code:saffl-Y ;
        prop:trta         code:trta-Placebo ;
        prop:unit         "_NULL_"^^xsd:string .

ds:obs316  a              qb:Observation ;
        rdfs:label        "316" ;
        qb:dataSet        ds:dataset-AE ;
        prop:aedecod      code:aedecod-BACK_PAIN ;
        prop:aesoc        code:aesoc-MUSCULOSKELETAL_AND_CONNECTIVE_TISSUE_DISORDERS ;
        prop:denominator  "_NULL_" ;
        prop:factor       code:factor-quantity ;
        prop:measure      "4"^^xsd:int ;
        prop:procedure    code:procedure-count ;
        prop:saffl        code:saffl-Y ;
        prop:trta         code:trta-Xanomeline_High_Dose ;
        prop:unit         "_NULL_"^^xsd:string .

ds:obs99  a               qb:Observation ;
        rdfs:label        "99" ;
        qb:dataSet        ds:dataset-AE ;
        prop:aedecod      code:aedecod-_ALL_ ;
        prop:aesoc        code:aesoc-NEOPLASMS_BENIGN__MALIGNANT_AND_UNSPECIFIED__INCL_CYSTS_AND_POLYPS_ ;
        prop:denominator  "_NULL_" ;
        prop:factor       code:factor-USUBJID ;
        prop:measure      "1"^^xsd:int ;
        prop:procedure    code:procedure-countdistinct ;
        prop:saffl        code:saffl-Y ;
        prop:trta         code:trta-Xanomeline_High_Dose ;
        prop:unit         "_NULL_"^^xsd:string .

code:Factor  a           rdfs:Class , owl:Class ;
        rdfs:comment     "Specifies the factor for each observation"@en ;
        rdfs:label       "Class for code list: factor"@en ;
        rdfs:seeAlso     code:factor ;
        rdfs:subClassOf  skos:Concept .

code:aedecod-DYSPHAGIA
        a                  code:Aedecod , skos:Concept ;
        rdfs:comment       "Coded values from data source. No reconciliation against another source"@en ;
        skos:inScheme      code:aedecod ;
        skos:prefLabel     "DYSPHAGIA" ;
        skos:topConceptOf  code:aedecod .

ds:obs362  a              qb:Observation ;
        rdfs:label        "362" ;
        qb:dataSet        ds:dataset-AE ;
        prop:aedecod      code:aedecod-ERYTHEMA ;
        prop:aesoc        code:aesoc-SKIN_AND_SUBCUTANEOUS_TISSUE_DISORDERS ;
        prop:denominator  "_NULL_" ;
        prop:factor       code:factor-quantity ;
        prop:measure      "22"^^xsd:int ;
        prop:procedure    code:procedure-count ;
        prop:saffl        code:saffl-Y ;
        prop:trta         code:trta-Xanomeline_High_Dose ;
        prop:unit         "_NULL_"^^xsd:string .

ds:obs537  a              qb:Observation ;
        rdfs:label        "537" ;
        qb:dataSet        ds:dataset-AE ;
        prop:aedecod      code:aedecod-APPLICATION_SITE_REACTION ;
        prop:aesoc        code:aesoc-GENERAL_DISORDERS_AND_ADMINISTRATION_SITE_CONDITIONS ;
        prop:denominator  "_NULL_" ;
        prop:factor       code:factor-USUBJID ;
        prop:measure      "1"^^xsd:int ;
        prop:procedure    code:procedure-countdistinct ;
        prop:saffl        code:saffl-Y ;
        prop:trta         code:trta-Placebo ;
        prop:unit         "_NULL_"^^xsd:string .

ds:obs67  a               qb:Observation ;
        rdfs:label        "67" ;
        qb:dataSet        ds:dataset-AE ;
        prop:aedecod      code:aedecod-_ALL_ ;
        prop:aesoc        code:aesoc-VASCULAR_DISORDERS ;
        prop:denominator  "_NULL_" ;
        prop:factor       code:factor-quantity ;
        prop:measure      "3"^^xsd:int ;
        prop:procedure    code:procedure-count ;
        prop:saffl        code:saffl-Y ;
        prop:trta         code:trta-Xanomeline_Low_Dose ;
        prop:unit         "_NULL_"^^xsd:string .

ds:obs583  a              qb:Observation ;
        rdfs:label        "583" ;
        qb:dataSet        ds:dataset-AE ;
        prop:aedecod      code:aedecod-PARKINSON_S_DISEASE ;
        prop:aesoc        code:aesoc-NERVOUS_SYSTEM_DISORDERS ;
        prop:denominator  "_NULL_" ;
        prop:factor       code:factor-USUBJID ;
        prop:measure      "1"^^xsd:int ;
        prop:procedure    code:procedure-countdistinct ;
        prop:saffl        code:saffl-Y ;
        prop:trta         code:trta-Placebo ;
        prop:unit         "_NULL_"^^xsd:string .

code:aedecod-SKIN_IRRITATION
        a                  code:Aedecod , skos:Concept ;
        rdfs:comment       "Coded values from data source. No reconciliation against another source"@en ;
        skos:inScheme      code:aedecod ;
        skos:prefLabel     "SKIN IRRITATION" ;
        skos:topConceptOf  code:aedecod .

ds:obs330  a              qb:Observation ;
        rdfs:label        "330" ;
        qb:dataSet        ds:dataset-AE ;
        prop:aedecod      code:aedecod-PARTIAL_SEIZURES_WITH_SECONDARY_GENERALISATION ;
        prop:aesoc        code:aesoc-NERVOUS_SYSTEM_DISORDERS ;
        prop:denominator  "_NULL_" ;
        prop:factor       code:factor-quantity ;
        prop:measure      "1"^^xsd:int ;
        prop:procedure    code:procedure-count ;
        prop:saffl        code:saffl-Y ;
        prop:trta         code:trta-Xanomeline_High_Dose ;
        prop:unit         "_NULL_"^^xsd:string .

ds:obs758  a              qb:Observation ;
        rdfs:label        "758" ;
        qb:dataSet        ds:dataset-AE ;
        prop:aedecod      code:aedecod-SUPRAVENTRICULAR_EXTRASYSTOLES ;
        prop:aesoc        code:aesoc-CARDIAC_DISORDERS ;
        prop:denominator  "_NULL_" ;
        prop:factor       code:factor-USUBJID ;
        prop:measure      "1"^^xsd:int ;
        prop:procedure    code:procedure-countdistinct ;
        prop:saffl        code:saffl-Y ;
        prop:trta         code:trta-Xanomeline_Low_Dose ;
        prop:unit         "_NULL_"^^xsd:string .

ds:obs505  a              qb:Observation ;
        rdfs:label        "505" ;
        qb:dataSet        ds:dataset-AE ;
        prop:aedecod      code:aedecod-ATRIOVENTRICULAR_BLOCK_SECOND_DEGREE ;
        prop:aesoc        code:aesoc-CARDIAC_DISORDERS ;
        prop:denominator  "_NULL_" ;
        prop:factor       code:factor-USUBJID ;
        prop:measure      "2"^^xsd:int ;
        prop:procedure    code:procedure-countdistinct ;
        prop:saffl        code:saffl-Y ;
        prop:trta         code:trta-Placebo ;
        prop:unit         "_NULL_"^^xsd:string .

ds:obs35  a               qb:Observation ;
        rdfs:label        "35" ;
        qb:dataSet        ds:dataset-AE ;
        prop:aedecod      code:aedecod-_ALL_ ;
        prop:aesoc        code:aesoc-INVESTIGATIONS ;
        prop:denominator  "_NULL_" ;
        prop:factor       code:factor-quantity ;
        prop:measure      "8"^^xsd:int ;
        prop:procedure    code:procedure-count ;
        prop:saffl        code:saffl-Y ;
        prop:trta         code:trta-Xanomeline_High_Dose ;
        prop:unit         "_NULL_"^^xsd:string .

ds:obs551  a              qb:Observation ;
        rdfs:label        "551" ;
        qb:dataSet        ds:dataset-AE ;
        prop:aedecod      code:aedecod-LOCALISED_INFECTION ;
        prop:aesoc        code:aesoc-INFECTIONS_AND_INFESTATIONS ;
        prop:denominator  "_NULL_" ;
        prop:factor       code:factor-USUBJID ;
        prop:measure      "1"^^xsd:int ;
        prop:procedure    code:procedure-countdistinct ;
        prop:saffl        code:saffl-Y ;
        prop:trta         code:trta-Placebo ;
        prop:unit         "_NULL_"^^xsd:string .

ds:obs726  a              qb:Observation ;
        rdfs:label        "726" ;
        qb:dataSet        ds:dataset-AE ;
        prop:aedecod      code:aedecod-EPISTAXIS ;
        prop:aesoc        code:aesoc-RESPIRATORY__THORACIC_AND_MEDIASTINAL_DISORDERS ;
        prop:denominator  "_NULL_" ;
        prop:factor       code:factor-USUBJID ;
        prop:measure      "2"^^xsd:int ;
        prop:procedure    code:procedure-countdistinct ;
        prop:saffl        code:saffl-Y ;
        prop:trta         code:trta-Xanomeline_High_Dose ;
        prop:unit         "_NULL_"^^xsd:string .

ds:obs81  a               qb:Observation ;
        rdfs:label        "81" ;
        qb:dataSet        ds:dataset-AE ;
        prop:aedecod      code:aedecod-_ALL_ ;
        prop:aesoc        code:aesoc-RENAL_AND_URINARY_DISORDERS ;
        prop:denominator  "_NULL_" ;
        prop:factor       code:factor-USUBJID ;
        prop:measure      "4"^^xsd:int ;
        prop:procedure    code:procedure-countdistinct ;
        prop:saffl        code:saffl-Y ;
        prop:trta         code:trta-Placebo ;
        prop:unit         "_NULL_"^^xsd:string .

code:aedecod-DECREASED_APPETITE
        a                  code:Aedecod , skos:Concept ;
        rdfs:comment       "Coded values from data source. No reconciliation against another source"@en ;
        skos:inScheme      code:aedecod ;
        skos:prefLabel     "DECREASED APPETITE" ;
        skos:topConceptOf  code:aedecod .

ds:obs772  a              qb:Observation ;
        rdfs:label        "772" ;
        qb:dataSet        ds:dataset-AE ;
        prop:aedecod      code:aedecod-NAUSEA ;
        prop:aesoc        code:aesoc-GASTROINTESTINAL_DISORDERS ;
        prop:denominator  "_NULL_" ;
        prop:factor       code:factor-USUBJID ;
        prop:measure      "3"^^xsd:int ;
        prop:procedure    code:procedure-countdistinct ;
        prop:saffl        code:saffl-Y ;
        prop:trta         code:trta-Xanomeline_Low_Dose ;
        prop:unit         "_NULL_"^^xsd:string .

ds:obs228  a              qb:Observation ;
        rdfs:label        "228" ;
        qb:dataSet        ds:dataset-AE ;
        prop:aedecod      code:aedecod-DYSPNOEA ;
        prop:aesoc        code:aesoc-RESPIRATORY__THORACIC_AND_MEDIASTINAL_DISORDERS ;
        prop:denominator  "_NULL_" ;
        prop:factor       code:factor-quantity ;
        prop:measure      "1"^^xsd:int ;
        prop:procedure    code:procedure-count ;
        prop:saffl        code:saffl-Y ;
        prop:trta         code:trta-Placebo ;
        prop:unit         "_NULL_"^^xsd:string .

ds:obs274  a              qb:Observation ;
        rdfs:label        "274" ;
        qb:dataSet        ds:dataset-AE ;
        prop:aedecod      code:aedecod-APPLICATION_SITE_PERSPIRATION ;
        prop:aesoc        code:aesoc-GENERAL_DISORDERS_AND_ADMINISTRATION_SITE_CONDITIONS ;
        prop:denominator  "_NULL_" ;
        prop:factor       code:factor-quantity ;
        prop:measure      "3"^^xsd:int ;
        prop:procedure    code:procedure-count ;
        prop:saffl        code:saffl-Y ;
        prop:trta         code:trta-Xanomeline_High_Dose ;
        prop:unit         "_NULL_"^^xsd:string .

ds:obs449  a              qb:Observation ;
        rdfs:label        "449" ;
        qb:dataSet        ds:dataset-AE ;
        prop:aedecod      code:aedecod-FOOD_CRAVING ;
        prop:aesoc        code:aesoc-METABOLISM_AND_NUTRITION_DISORDERS ;
        prop:denominator  "_NULL_" ;
        prop:factor       code:factor-quantity ;
        prop:measure      "1"^^xsd:int ;
        prop:procedure    code:procedure-count ;
        prop:saffl        code:saffl-Y ;
        prop:trta         code:trta-Xanomeline_Low_Dose ;
        prop:unit         "_NULL_"^^xsd:string .

ds:dataset-AE  a             qb:DataSet ;
        rdfs:comment         "Adverse event sample table"@en ;
        rdfs:label           "Adverse Events results data set"@en ;
        dct:description      "Cube with 6 dimensions and 1 measure (measure)"@en ;
        dct:title            "Adverse Event Analysis Results"^^xsd:string ;
        qb:structure         ds:dsd-AE ;
        pav:createdBy        "username or session name"^^xsd:string , "username or session name"^^xsd:string ;
        pav:createdOn        "2015-02-16T16:59:24+01:00"^^xsd:dateTime ;
        pav:createdWith      "R Version 3.1.2 Platform:x86_64-redhat-linux-gnu rrdfqbrnd0 package and dependencies" ;
        pav:version          "0.0.0" ;
        dcat:distribution    "DC-AE-R-V-0-5-2.TTL" ;
        prov:wasDerivedFrom  "ae.AR.csv" .

ds:obs740  a              qb:Observation ;
        rdfs:label        "740" ;
        qb:dataSet        ds:dataset-AE ;
        prop:aedecod      code:aedecod-RASH_MACULO-PAPULAR ;
        prop:aesoc        code:aesoc-SKIN_AND_SUBCUTANEOUS_TISSUE_DISORDERS ;
        prop:denominator  "_NULL_" ;
        prop:factor       code:factor-USUBJID ;
        prop:measure      "1"^^xsd:int ;
        prop:procedure    code:procedure-countdistinct ;
        prop:saffl        code:saffl-Y ;
        prop:trta         code:trta-Xanomeline_High_Dose ;
        prop:unit         "_NULL_"^^xsd:string .

code:aedecod-FEELING_COLD
        a                  code:Aedecod , skos:Concept ;
        rdfs:comment       "Coded values from data source. No reconciliation against another source"@en ;
        skos:inScheme      code:aedecod ;
        skos:prefLabel     "FEELING COLD" ;
        skos:topConceptOf  code:aedecod .

ds:obs495  a              qb:Observation ;
        rdfs:label        "495" ;
        qb:dataSet        ds:dataset-AE ;
        prop:aedecod      code:aedecod-SKIN_EXFOLIATION ;
        prop:aesoc        code:aesoc-SKIN_AND_SUBCUTANEOUS_TISSUE_DISORDERS ;
        prop:denominator  "_NULL_" ;
        prop:factor       code:factor-quantity ;
        prop:measure      "2"^^xsd:int ;
        prop:procedure    code:procedure-count ;
        prop:saffl        code:saffl-Y ;
        prop:trta         code:trta-Xanomeline_Low_Dose ;
        prop:unit         "_NULL_"^^xsd:string .

ds:obs242  a              qb:Observation ;
        rdfs:label        "242" ;
        qb:dataSet        ds:dataset-AE ;
        prop:aedecod      code:aedecod-SKIN_IRRITATION ;
        prop:aesoc        code:aesoc-SKIN_AND_SUBCUTANEOUS_TISSUE_DISORDERS ;
        prop:denominator  "_NULL_" ;
        prop:factor       code:factor-quantity ;
        prop:measure      "4"^^xsd:int ;
        prop:procedure    code:procedure-count ;
        prop:saffl        code:saffl-Y ;
        prop:trta         code:trta-Placebo ;
        prop:unit         "_NULL_"^^xsd:string .

code:aedecod-VAGINAL_MYCOSIS
        a                  code:Aedecod , skos:Concept ;
        rdfs:comment       "Coded values from data source. No reconciliation against another source"@en ;
        skos:inScheme      code:aedecod ;
        skos:prefLabel     "VAGINAL MYCOSIS" ;
        skos:topConceptOf  code:aedecod .

ds:obs417  a              qb:Observation ;
        rdfs:label        "417" ;
        qb:dataSet        ds:dataset-AE ;
        prop:aedecod      code:aedecod-MALAISE ;
        prop:aesoc        code:aesoc-GENERAL_DISORDERS_AND_ADMINISTRATION_SITE_CONDITIONS ;
        prop:denominator  "_NULL_" ;
        prop:factor       code:factor-quantity ;
        prop:measure      "2"^^xsd:int ;
        prop:procedure    code:procedure-count ;
        prop:saffl        code:saffl-Y ;
        prop:trta         code:trta-Xanomeline_Low_Dose ;
        prop:unit         "_NULL_"^^xsd:string .

code:aedecod-ATRIOVENTRICULAR_BLOCK_SECOND_DEGREE
        a                  code:Aedecod , skos:Concept ;
        rdfs:comment       "Coded values from data source. No reconciliation against another source"@en ;
        skos:inScheme      code:aedecod ;
        skos:prefLabel     "ATRIOVENTRICULAR BLOCK SECOND DEGREE" ;
        skos:topConceptOf  code:aedecod .

code:aedecod-VENTRICULAR_EXTRASYSTOLES
        a                  code:Aedecod , skos:Concept ;
        rdfs:comment       "Coded values from data source. No reconciliation against another source"@en ;
        skos:inScheme      code:aedecod ;
        skos:prefLabel     "VENTRICULAR EXTRASYSTOLES" ;
        skos:topConceptOf  code:aedecod .

ds:dsd-AE  a          qb:DataStructureDefinition ;
        qb:component  dccs:procedure , dccs:factor , dccs:saffl , dccs:denominator , dccs:unit , dccs:aesoc , dccs:aedecod , dccs:trta , dccs:measure .

ds:obs463  a              qb:Observation ;
        rdfs:label        "463" ;
        qb:dataSet        ds:dataset-AE ;
        prop:aedecod      code:aedecod-LETHARGY ;
        prop:aesoc        code:aesoc-NERVOUS_SYSTEM_DISORDERS ;
        prop:denominator  "_NULL_" ;
        prop:factor       code:factor-quantity ;
        prop:measure      "1"^^xsd:int ;
        prop:procedure    code:procedure-count ;
        prop:saffl        code:saffl-Y ;
        prop:trta         code:trta-Xanomeline_Low_Dose ;
        prop:unit         "_NULL_"^^xsd:string .

ds:obs210  a              qb:Observation ;
        rdfs:label        "210" ;
        qb:dataSet        ds:dataset-AE ;
        prop:aedecod      code:aedecod-PARKINSON_S_DISEASE ;
        prop:aesoc        code:aesoc-NERVOUS_SYSTEM_DISORDERS ;
        prop:denominator  "_NULL_" ;
        prop:factor       code:factor-quantity ;
        prop:measure      "1"^^xsd:int ;
        prop:procedure    code:procedure-count ;
        prop:saffl        code:saffl-Y ;
        prop:trta         code:trta-Placebo ;
        prop:unit         "_NULL_"^^xsd:string .

ds:obs638  a              qb:Observation ;
        rdfs:label        "638" ;
        qb:dataSet        ds:dataset-AE ;
        prop:aedecod      code:aedecod-NAUSEA ;
        prop:aesoc        code:aesoc-GASTROINTESTINAL_DISORDERS ;
        prop:denominator  "_NULL_" ;
        prop:factor       code:factor-USUBJID ;
        prop:measure      "6"^^xsd:int ;
        prop:procedure    code:procedure-countdistinct ;
        prop:saffl        code:saffl-Y ;
        prop:trta         code:trta-Xanomeline_High_Dose ;
        prop:unit         "_NULL_"^^xsd:string .

ds:obs684  a              qb:Observation ;
        rdfs:label        "684" ;
        qb:dataSet        ds:dataset-AE ;
        prop:aedecod      code:aedecod-DECREASED_APPETITE ;
        prop:aesoc        code:aesoc-METABOLISM_AND_NUTRITION_DISORDERS ;
        prop:denominator  "_NULL_" ;
        prop:factor       code:factor-USUBJID ;
        prop:measure      "1"^^xsd:int ;
        prop:procedure    code:procedure-countdistinct ;
        prop:saffl        code:saffl-Y ;
        prop:trta         code:trta-Xanomeline_High_Dose ;
        prop:unit         "_NULL_"^^xsd:string .

ds:obs859  a              qb:Observation ;
        rdfs:label        "859" ;
        qb:dataSet        ds:dataset-AE ;
        prop:aedecod      code:aedecod-BLISTER ;
        prop:aesoc        code:aesoc-SKIN_AND_SUBCUTANEOUS_TISSUE_DISORDERS ;
        prop:denominator  "_NULL_" ;
        prop:factor       code:factor-USUBJID ;
        prop:measure      "5"^^xsd:int ;
        prop:procedure    code:procedure-countdistinct ;
        prop:saffl        code:saffl-Y ;
        prop:trta         code:trta-Xanomeline_Low_Dose ;
        prop:unit         "_NULL_"^^xsd:string .

ds:obs431  a              qb:Observation ;
        rdfs:label        "431" ;
        qb:dataSet        ds:dataset-AE ;
        prop:aedecod      code:aedecod-PNEUMONIA ;
        prop:aesoc        code:aesoc-INFECTIONS_AND_INFESTATIONS ;
        prop:denominator  "_NULL_" ;
        prop:factor       code:factor-quantity ;
        prop:measure      "2"^^xsd:int ;
        prop:procedure    code:procedure-count ;
        prop:saffl        code:saffl-Y ;
        prop:trta         code:trta-Xanomeline_Low_Dose ;
        prop:unit         "_NULL_"^^xsd:string .

code:aedecod-APPLICATION_SITE_ERYTHEMA
        a                  code:Aedecod , skos:Concept ;
        rdfs:comment       "Coded values from data source. No reconciliation against another source"@en ;
        skos:inScheme      code:aedecod ;
        skos:prefLabel     "APPLICATION SITE ERYTHEMA" ;
        skos:topConceptOf  code:aedecod .

ds:obs606  a              qb:Observation ;
        rdfs:label        "606" ;
        qb:dataSet        ds:dataset-AE ;
        prop:aedecod      code:aedecod-RALES ;
        prop:aesoc        code:aesoc-RESPIRATORY__THORACIC_AND_MEDIASTINAL_DISORDERS ;
        prop:denominator  "_NULL_" ;
        prop:factor       code:factor-USUBJID ;
        prop:measure      "1"^^xsd:int ;
        prop:procedure    code:procedure-countdistinct ;
        prop:saffl        code:saffl-Y ;
        prop:trta         code:trta-Placebo ;
        prop:unit         "_NULL_"^^xsd:string .

ds:obs186  a              qb:Observation ;
        rdfs:label        "186" ;
        qb:dataSet        ds:dataset-AE ;
        prop:aedecod      code:aedecod-HIP_FRACTURE ;
        prop:aesoc        code:aesoc-INJURY__POISONING_AND_PROCEDURAL_COMPLICATIONS ;
        prop:denominator  "_NULL_" ;
        prop:factor       code:factor-quantity ;
        prop:measure      "2"^^xsd:int ;
        prop:procedure    code:procedure-count ;
        prop:saffl        code:saffl-Y ;
        prop:trta         code:trta-Placebo ;
        prop:unit         "_NULL_"^^xsd:string .

code:aesoc-SOCIAL_CIRCUMSTANCES
        a                  code:Aesoc , skos:Concept ;
        rdfs:comment       "Coded values from data source. No reconciliation against another source"@en ;
        skos:inScheme      code:aesoc ;
        skos:prefLabel     "SOCIAL CIRCUMSTANCES" ;
        skos:topConceptOf  code:aesoc .

ds:obs652  a              qb:Observation ;
        rdfs:label        "652" ;
        qb:dataSet        ds:dataset-AE ;
        prop:aedecod      code:aedecod-APPLICATION_SITE_VESICLES ;
        prop:aesoc        code:aesoc-GENERAL_DISORDERS_AND_ADMINISTRATION_SITE_CONDITIONS ;
        prop:denominator  "_NULL_" ;
        prop:factor       code:factor-USUBJID ;
        prop:measure      "6"^^xsd:int ;
        prop:procedure    code:procedure-countdistinct ;
        prop:saffl        code:saffl-Y ;
        prop:trta         code:trta-Xanomeline_High_Dose ;
        prop:unit         "_NULL_"^^xsd:string .

ds:obs108  a              qb:Observation ;
        rdfs:label        "108" ;
        qb:dataSet        ds:dataset-AE ;
        prop:aedecod      code:aedecod-_ALL_ ;
        prop:aesoc        code:aesoc-VASCULAR_DISORDERS ;
        prop:denominator  "_NULL_" ;
        prop:factor       code:factor-USUBJID ;
        prop:measure      "2"^^xsd:int ;
        prop:procedure    code:procedure-countdistinct ;
        prop:saffl        code:saffl-Y ;
        prop:trta         code:trta-Xanomeline_High_Dose ;
        prop:unit         "_NULL_"^^xsd:string .

ds:obs827  a              qb:Observation ;
        rdfs:label        "827" ;
        qb:dataSet        ds:dataset-AE ;
        prop:aedecod      code:aedecod-SHOULDER_PAIN ;
        prop:aesoc        code:aesoc-MUSCULOSKELETAL_AND_CONNECTIVE_TISSUE_DISORDERS ;
        prop:denominator  "_NULL_" ;
        prop:factor       code:factor-USUBJID ;
        prop:measure      "2"^^xsd:int ;
        prop:procedure    code:procedure-countdistinct ;
        prop:saffl        code:saffl-Y ;
        prop:trta         code:trta-Xanomeline_Low_Dose ;
        prop:unit         "_NULL_"^^xsd:string .

code:aesoc-VASCULAR_DISORDERS
        a                  code:Aesoc , skos:Concept ;
        rdfs:comment       "Coded values from data source. No reconciliation against another source"@en ;
        skos:inScheme      code:aesoc ;
        skos:prefLabel     "VASCULAR DISORDERS" ;
        skos:topConceptOf  code:aesoc .

ds:obs154  a              qb:Observation ;
        rdfs:label        "154" ;
        qb:dataSet        ds:dataset-AE ;
        prop:aedecod      code:aedecod-GASTROOESOPHAGEAL_REFLUX_DISEASE ;
        prop:aesoc        code:aesoc-GASTROINTESTINAL_DISORDERS ;
        prop:denominator  "_NULL_" ;
        prop:factor       code:factor-quantity ;
        prop:measure      "1"^^xsd:int ;
        prop:procedure    code:procedure-count ;
        prop:saffl        code:saffl-Y ;
        prop:trta         code:trta-Placebo ;
        prop:unit         "_NULL_"^^xsd:string .

ds:obs873  a              qb:Observation ;
        rdfs:label        "873" ;
        qb:dataSet        ds:dataset-AE ;
        prop:aedecod      code:aedecod-HYPERTENSION ;
        prop:aesoc        code:aesoc-VASCULAR_DISORDERS ;
        prop:denominator  "_NULL_" ;
        prop:factor       code:factor-USUBJID ;
        prop:measure      "1"^^xsd:int ;
        prop:procedure    code:procedure-countdistinct ;
        prop:saffl        code:saffl-Y ;
        prop:trta         code:trta-Xanomeline_Low_Dose ;
        prop:unit         "_NULL_"^^xsd:string .

ds:obs329  a              qb:Observation ;
        rdfs:label        "329" ;
        qb:dataSet        ds:dataset-AE ;
        prop:aedecod      code:aedecod-PAROSMIA ;
        prop:aesoc        code:aesoc-NERVOUS_SYSTEM_DISORDERS ;
        prop:denominator  "_NULL_" ;
        prop:factor       code:factor-quantity ;
        prop:measure      "2"^^xsd:int ;
        prop:procedure    code:procedure-count ;
        prop:saffl        code:saffl-Y ;
        prop:trta         code:trta-Xanomeline_High_Dose ;
        prop:unit         "_NULL_"^^xsd:string .

code:aesoc-SURGICAL_AND_MEDICAL_PROCEDURES
        a                  code:Aesoc , skos:Concept ;
        rdfs:comment       "Coded values from data source. No reconciliation against another source"@en ;
        skos:inScheme      code:aesoc ;
        skos:prefLabel     "SURGICAL AND MEDICAL PROCEDURES" ;
        skos:topConceptOf  code:aesoc .

ds:obs620  a              qb:Observation ;
        rdfs:label        "620" ;
        qb:dataSet        ds:dataset-AE ;
        prop:aedecod      code:aedecod-HYPOTENSION ;
        prop:aesoc        code:aesoc-VASCULAR_DISORDERS ;
        prop:denominator  "_NULL_" ;
        prop:factor       code:factor-USUBJID ;
        prop:measure      "2"^^xsd:int ;
        prop:procedure    code:procedure-countdistinct ;
        prop:saffl        code:saffl-Y ;
        prop:trta         code:trta-Placebo ;
        prop:unit         "_NULL_"^^xsd:string .

ds:obs375  a              qb:Observation ;
        rdfs:label        "375" ;
        qb:dataSet        ds:dataset-AE ;
        prop:aedecod      code:aedecod-SKIN_LESION_EXCISION ;
        prop:aesoc        code:aesoc-SURGICAL_AND_MEDICAL_PROCEDURES ;
        prop:denominator  "_NULL_" ;
        prop:factor       code:factor-quantity ;
        prop:measure      "1"^^xsd:int ;
        prop:procedure    code:procedure-count ;
        prop:saffl        code:saffl-Y ;
        prop:trta         code:trta-Xanomeline_High_Dose ;
        prop:unit         "_NULL_"^^xsd:string .

ds:obs122  a              qb:Observation ;
        rdfs:label        "122" ;
        qb:dataSet        ds:dataset-AE ;
        prop:aedecod      code:aedecod-_ALL_ ;
        prop:aesoc        code:aesoc-NERVOUS_SYSTEM_DISORDERS ;
        prop:denominator  "_NULL_" ;
        prop:factor       code:factor-USUBJID ;
        prop:measure      "20"^^xsd:int ;
        prop:procedure    code:procedure-countdistinct ;
        prop:saffl        code:saffl-Y ;
        prop:trta         code:trta-Xanomeline_Low_Dose ;
        prop:unit         "_NULL_"^^xsd:string .

ds:obs841  a              qb:Observation ;
        rdfs:label        "841" ;
        qb:dataSet        ds:dataset-AE ;
        prop:aedecod      code:aedecod-TRANSIENT_ISCHAEMIC_ATTACK ;
        prop:aesoc        code:aesoc-NERVOUS_SYSTEM_DISORDERS ;
        prop:denominator  "_NULL_" ;
        prop:factor       code:factor-USUBJID ;
        prop:measure      "2"^^xsd:int ;
        prop:procedure    code:procedure-countdistinct ;
        prop:saffl        code:saffl-Y ;
        prop:trta         code:trta-Xanomeline_Low_Dose ;
        prop:unit         "_NULL_"^^xsd:string .

code:aedecod-DEPRESSED_MOOD
        a                  code:Aedecod , skos:Concept ;
        rdfs:comment       "Coded values from data source. No reconciliation against another source"@en ;
        skos:inScheme      code:aedecod ;
        skos:prefLabel     "DEPRESSED MOOD" ;
        skos:topConceptOf  code:aedecod .

ds:obs596  a              qb:Observation ;
        rdfs:label        "596" ;
        qb:dataSet        ds:dataset-AE ;
        prop:aedecod      code:aedecod-NEPHROLITHIASIS ;
        prop:aesoc        code:aesoc-RENAL_AND_URINARY_DISORDERS ;
        prop:denominator  "_NULL_" ;
        prop:factor       code:factor-USUBJID ;
        prop:measure      "1"^^xsd:int ;
        prop:procedure    code:procedure-countdistinct ;
        prop:saffl        code:saffl-Y ;
        prop:trta         code:trta-Placebo ;
        prop:unit         "_NULL_"^^xsd:string .

ds:obs343  a              qb:Observation ;
        rdfs:label        "343" ;
        qb:dataSet        ds:dataset-AE ;
        prop:aedecod      code:aedecod-LIBIDO_DECREASED ;
        prop:aesoc        code:aesoc-PSYCHIATRIC_DISORDERS ;
        prop:denominator  "_NULL_" ;
        prop:factor       code:factor-quantity ;
        prop:measure      "1"^^xsd:int ;
        prop:procedure    code:procedure-count ;
        prop:saffl        code:saffl-Y ;
        prop:trta         code:trta-Xanomeline_High_Dose ;
        prop:unit         "_NULL_"^^xsd:string .

ds:obs518  a              qb:Observation ;
        rdfs:label        "518" ;
        qb:dataSet        ds:dataset-AE ;
        prop:aedecod      code:aedecod-EYE_ALLERGY ;
        prop:aesoc        code:aesoc-EYE_DISORDERS ;
        prop:denominator  "_NULL_" ;
        prop:factor       code:factor-USUBJID ;
        prop:measure      "1"^^xsd:int ;
        prop:procedure    code:procedure-countdistinct ;
        prop:saffl        code:saffl-Y ;
        prop:trta         code:trta-Placebo ;
        prop:unit         "_NULL_"^^xsd:string .

ds:obs48  a               qb:Observation ;
        rdfs:label        "48" ;
        qb:dataSet        ds:dataset-AE ;
        prop:aedecod      code:aedecod-_ALL_ ;
        prop:aesoc        code:aesoc-CARDIAC_DISORDERS ;
        prop:denominator  "_NULL_" ;
        prop:factor       code:factor-quantity ;
        prop:measure      "30"^^xsd:int ;
        prop:procedure    code:procedure-count ;
        prop:saffl        code:saffl-Y ;
        prop:trta         code:trta-Xanomeline_Low_Dose ;
        prop:unit         "_NULL_"^^xsd:string .

ds:obs1  a                qb:Observation ;
        rdfs:label        "1" ;
        qb:dataSet        ds:dataset-AE ;
        prop:aedecod      code:aedecod-_ALL_ ;
        prop:aesoc        code:aesoc-_ALL_ ;
        prop:denominator  "_NULL_" ;
        prop:factor       code:factor-quantity ;
        prop:measure      "301"^^xsd:int ;
        prop:procedure    code:procedure-count ;
        prop:saffl        code:saffl-Y ;
        prop:trta         code:trta-Placebo ;
        prop:unit         "_NULL_"^^xsd:string .

ds:obs564  a              qb:Observation ;
        rdfs:label        "564" ;
        qb:dataSet        ds:dataset-AE ;
        prop:aedecod      code:aedecod-CYSTOSCOPY ;
        prop:aesoc        code:aesoc-INVESTIGATIONS ;
        prop:denominator  "_NULL_" ;
        prop:factor       code:factor-USUBJID ;
        prop:measure      "1"^^xsd:int ;
        prop:procedure    code:procedure-countdistinct ;
        prop:saffl        code:saffl-Y ;
        prop:trta         code:trta-Placebo ;
        prop:unit         "_NULL_"^^xsd:string .

ds:obs311  a              qb:Observation ;
        rdfs:label        "311" ;
        qb:dataSet        ds:dataset-AE ;
        prop:aedecod      code:aedecod-DECREASED_APPETITE ;
        prop:aesoc        code:aesoc-METABOLISM_AND_NUTRITION_DISORDERS ;
        prop:denominator  "_NULL_" ;
        prop:factor       code:factor-quantity ;
        prop:measure      "2"^^xsd:int ;
        prop:procedure    code:procedure-count ;
        prop:saffl        code:saffl-Y ;
        prop:trta         code:trta-Xanomeline_High_Dose ;
        prop:unit         "_NULL_"^^xsd:string .

ds:obs94  a               qb:Observation ;
        rdfs:label        "94" ;
        qb:dataSet        ds:dataset-AE ;
        prop:aedecod      code:aedecod-_ALL_ ;
        prop:aesoc        code:aesoc-INFECTIONS_AND_INFESTATIONS ;
        prop:denominator  "_NULL_" ;
        prop:factor       code:factor-USUBJID ;
        prop:measure      "13"^^xsd:int ;
        prop:procedure    code:procedure-countdistinct ;
        prop:saffl        code:saffl-Y ;
        prop:trta         code:trta-Xanomeline_High_Dose ;
        prop:unit         "_NULL_"^^xsd:string .

ds:obs739  a              qb:Observation ;
        rdfs:label        "739" ;
        qb:dataSet        ds:dataset-AE ;
        prop:aedecod      code:aedecod-RASH ;
        prop:aesoc        code:aesoc-SKIN_AND_SUBCUTANEOUS_TISSUE_DISORDERS ;
        prop:denominator  "_NULL_" ;
        prop:factor       code:factor-USUBJID ;
        prop:measure      "11"^^xsd:int ;
        prop:procedure    code:procedure-countdistinct ;
        prop:saffl        code:saffl-Y ;
        prop:trta         code:trta-Xanomeline_High_Dose ;
        prop:unit         "_NULL_"^^xsd:string .

code:aedecod-VIRAL_INFECTION
        a                  code:Aedecod , skos:Concept ;
        rdfs:comment       "Coded values from data source. No reconciliation against another source"@en ;
        skos:inScheme      code:aedecod ;
        skos:prefLabel     "VIRAL INFECTION" ;
        skos:topConceptOf  code:aedecod .

ds:obs16  a               qb:Observation ;
        rdfs:label        "16" ;
        qb:dataSet        ds:dataset-AE ;
        prop:aedecod      code:aedecod-_ALL_ ;
        prop:aesoc        code:aesoc-METABOLISM_AND_NUTRITION_DISORDERS ;
        prop:denominator  "_NULL_" ;
        prop:factor       code:factor-quantity ;
        prop:measure      "8"^^xsd:int ;
        prop:procedure    code:procedure-count ;
        prop:saffl        code:saffl-Y ;
        prop:trta         code:trta-Placebo ;
        prop:unit         "_NULL_"^^xsd:string .

ds:obs785  a              qb:Observation ;
        rdfs:label        "785" ;
        qb:dataSet        ds:dataset-AE ;
        prop:aedecod      code:aedecod-APPLICATION_SITE_WARMTH ;
        prop:aesoc        code:aesoc-GENERAL_DISORDERS_AND_ADMINISTRATION_SITE_CONDITIONS ;
        prop:denominator  "_NULL_" ;
        prop:factor       code:factor-USUBJID ;
        prop:measure      "1"^^xsd:int ;
        prop:procedure    code:procedure-countdistinct ;
        prop:saffl        code:saffl-Y ;
        prop:trta         code:trta-Xanomeline_Low_Dose ;
        prop:unit         "_NULL_"^^xsd:string .

ds:obs532  a              qb:Observation ;
        rdfs:label        "532" ;
        qb:dataSet        ds:dataset-AE ;
        prop:aedecod      code:aedecod-APPLICATION_SITE_DERMATITIS ;
        prop:aesoc        code:aesoc-GENERAL_DISORDERS_AND_ADMINISTRATION_SITE_CONDITIONS ;
        prop:denominator  "_NULL_" ;
        prop:factor       code:factor-USUBJID ;
        prop:measure      "5"^^xsd:int ;
        prop:procedure    code:procedure-countdistinct ;
        prop:saffl        code:saffl-Y ;
        prop:trta         code:trta-Placebo ;
        prop:unit         "_NULL_"^^xsd:string .

code:aedecod-AGITATION
        a                  code:Aedecod , skos:Concept ;
        rdfs:comment       "Coded values from data source. No reconciliation against another source"@en ;
        skos:inScheme      code:aedecod ;
        skos:prefLabel     "AGITATION" ;
        skos:topConceptOf  code:aedecod .

ds:obs62  a               qb:Observation ;
        rdfs:label        "62" ;
        qb:dataSet        ds:dataset-AE ;
        prop:aedecod      code:aedecod-_ALL_ ;
        prop:aesoc        code:aesoc-PSYCHIATRIC_DISORDERS ;
        prop:denominator  "_NULL_" ;
        prop:factor       code:factor-quantity ;
        prop:measure      "14"^^xsd:int ;
        prop:procedure    code:procedure-count ;
        prop:saffl        code:saffl-Y ;
        prop:trta         code:trta-Xanomeline_Low_Dose ;
        prop:unit         "_NULL_"^^xsd:string .

ds:obs707  a              qb:Observation ;
        rdfs:label        "707" ;
        qb:dataSet        ds:dataset-AE ;
        prop:aedecod      code:aedecod-TRANSIENT_ISCHAEMIC_ATTACK ;
        prop:aesoc        code:aesoc-NERVOUS_SYSTEM_DISORDERS ;
        prop:denominator  "_NULL_" ;
        prop:factor       code:factor-USUBJID ;
        prop:measure      "1"^^xsd:int ;
        prop:procedure    code:procedure-countdistinct ;
        prop:saffl        code:saffl-Y ;
        prop:trta         code:trta-Xanomeline_High_Dose ;
        prop:unit         "_NULL_"^^xsd:string .

ds:obs287  a              qb:Observation ;
        rdfs:label        "287" ;
        qb:dataSet        ds:dataset-AE ;
        prop:aedecod      code:aedecod-MALAISE ;
        prop:aesoc        code:aesoc-GENERAL_DISORDERS_AND_ADMINISTRATION_SITE_CONDITIONS ;
        prop:denominator  "_NULL_" ;
        prop:factor       code:factor-quantity ;
        prop:measure      "3"^^xsd:int ;
        prop:procedure    code:procedure-count ;
        prop:saffl        code:saffl-Y ;
        prop:trta         code:trta-Xanomeline_High_Dose ;
        prop:unit         "_NULL_"^^xsd:string .

ds:obs753  a              qb:Observation ;
        rdfs:label        "753" ;
        qb:dataSet        ds:dataset-AE ;
        prop:aedecod      code:aedecod-ATRIOVENTRICULAR_BLOCK_FIRST_DEGREE ;
        prop:aesoc        code:aesoc-CARDIAC_DISORDERS ;
        prop:denominator  "_NULL_" ;
        prop:factor       code:factor-USUBJID ;
        prop:measure      "1"^^xsd:int ;
        prop:procedure    code:procedure-countdistinct ;
        prop:saffl        code:saffl-Y ;
        prop:trta         code:trta-Xanomeline_Low_Dose ;
        prop:unit         "_NULL_"^^xsd:string .

ds:obs209  a              qb:Observation ;
        rdfs:label        "209" ;
        qb:dataSet        ds:dataset-AE ;
        prop:aedecod      code:aedecod-HEADACHE ;
        prop:aesoc        code:aesoc-NERVOUS_SYSTEM_DISORDERS ;
        prop:denominator  "_NULL_" ;
        prop:factor       code:factor-quantity ;
        prop:measure      "8"^^xsd:int ;
        prop:procedure    code:procedure-count ;
        prop:saffl        code:saffl-Y ;
        prop:trta         code:trta-Placebo ;
        prop:unit         "_NULL_"^^xsd:string .

ds:obs500  a              qb:Observation ;
        rdfs:label        "500" ;
        qb:dataSet        ds:dataset-AE ;
        prop:aedecod      code:aedecod-HYPERTENSION ;
        prop:aesoc        code:aesoc-VASCULAR_DISORDERS ;
        prop:denominator  "_NULL_" ;
        prop:factor       code:factor-quantity ;
        prop:measure      "1"^^xsd:int ;
        prop:procedure    code:procedure-count ;
        prop:saffl        code:saffl-Y ;
        prop:trta         code:trta-Xanomeline_Low_Dose ;
        prop:unit         "_NULL_"^^xsd:string .

code:aedecod-PSYCHOMOTOR_HYPERACTIVITY
        a                  code:Aedecod , skos:Concept ;
        rdfs:comment       "Coded values from data source. No reconciliation against another source"@en ;
        skos:inScheme      code:aedecod ;
        skos:prefLabel     "PSYCHOMOTOR HYPERACTIVITY" ;
        skos:topConceptOf  code:aedecod .

ds:obs30  a               qb:Observation ;
        rdfs:label        "30" ;
        qb:dataSet        ds:dataset-AE ;
        prop:aedecod      code:aedecod-_ALL_ ;
        prop:aesoc        code:aesoc-GASTROINTESTINAL_DISORDERS ;
        prop:denominator  "_NULL_" ;
        prop:factor       code:factor-quantity ;
        prop:measure      "37"^^xsd:int ;
        prop:procedure    code:procedure-count ;
        prop:saffl        code:saffl-Y ;
        prop:trta         code:trta-Xanomeline_High_Dose ;
        prop:unit         "_NULL_"^^xsd:string .

code:Trta  a             rdfs:Class , owl:Class ;
        rdfs:comment     "Specifies the trta for each observation"@en ;
        rdfs:label       "Class for code list: trta"@en ;
        rdfs:seeAlso     code:trta ;
        rdfs:subClassOf  skos:Concept .

code:aedecod-BACK_PAIN
        a                  code:Aedecod , skos:Concept ;
        rdfs:comment       "Coded values from data source. No reconciliation against another source"@en ;
        skos:inScheme      code:aedecod ;
        skos:prefLabel     "BACK PAIN" ;
        skos:topConceptOf  code:aedecod .

ds:obs255  a              qb:Observation ;
        rdfs:label        "255" ;
        qb:dataSet        ds:dataset-AE ;
        prop:aedecod      code:aedecod-SUPRAVENTRICULAR_EXTRASYSTOLES ;
        prop:aesoc        code:aesoc-CARDIAC_DISORDERS ;
        prop:denominator  "_NULL_" ;
        prop:factor       code:factor-quantity ;
        prop:measure      "1"^^xsd:int ;
        prop:procedure    code:procedure-count ;
        prop:saffl        code:saffl-Y ;
        prop:trta         code:trta-Xanomeline_High_Dose ;
        prop:unit         "_NULL_"^^xsd:string .

code:aedecod-RHINITIS
        a                  code:Aedecod , skos:Concept ;
        rdfs:comment       "Coded values from data source. No reconciliation against another source"@en ;
        skos:inScheme      code:aedecod ;
        skos:prefLabel     "RHINITIS" ;
        skos:topConceptOf  code:aedecod .

ds:obs721  a              qb:Observation ;
        rdfs:label        "721" ;
        qb:dataSet        ds:dataset-AE ;
        prop:aedecod      code:aedecod-NEPHROLITHIASIS ;
        prop:aesoc        code:aesoc-RENAL_AND_URINARY_DISORDERS ;
        prop:denominator  "_NULL_" ;
        prop:factor       code:factor-USUBJID ;
        prop:measure      "1"^^xsd:int ;
        prop:procedure    code:procedure-countdistinct ;
        prop:saffl        code:saffl-Y ;
        prop:trta         code:trta-Xanomeline_High_Dose ;
        prop:unit         "_NULL_"^^xsd:string .

ds:obs476  a              qb:Observation ;
        rdfs:label        "476" ;
        qb:dataSet        ds:dataset-AE ;
        prop:aedecod      code:aedecod-ENURESIS ;
        prop:aesoc        code:aesoc-RENAL_AND_URINARY_DISORDERS ;
        prop:denominator  "_NULL_" ;
        prop:factor       code:factor-quantity ;
        prop:measure      "1"^^xsd:int ;
        prop:procedure    code:procedure-count ;
        prop:saffl        code:saffl-Y ;
        prop:trta         code:trta-Xanomeline_Low_Dose ;
        prop:unit         "_NULL_"^^xsd:string .

ds:obs223  a              qb:Observation ;
        rdfs:label        "223" ;
        qb:dataSet        ds:dataset-AE ;
        prop:aedecod      code:aedecod-NEPHROLITHIASIS ;
        prop:aesoc        code:aesoc-RENAL_AND_URINARY_DISORDERS ;
        prop:denominator  "_NULL_" ;
        prop:factor       code:factor-quantity ;
        prop:measure      "1"^^xsd:int ;
        prop:procedure    code:procedure-count ;
        prop:saffl        code:saffl-Y ;
        prop:trta         code:trta-Placebo ;
        prop:unit         "_NULL_"^^xsd:string .

code:aedecod-COLD_SWEAT
        a                  code:Aedecod , skos:Concept ;
        rdfs:comment       "Coded values from data source. No reconciliation against another source"@en ;
        skos:inScheme      code:aedecod ;
        skos:prefLabel     "COLD SWEAT" ;
        skos:topConceptOf  code:aedecod .

code:aedecod-APPLICATION_SITE_VESICLES
        a                  code:Aedecod , skos:Concept ;
        rdfs:comment       "Coded values from data source. No reconciliation against another source"@en ;
        skos:inScheme      code:aedecod ;
        skos:prefLabel     "APPLICATION SITE VESICLES" ;
        skos:topConceptOf  code:aedecod .

ds:obs697  a              qb:Observation ;
        rdfs:label        "697" ;
        qb:dataSet        ds:dataset-AE ;
        prop:aedecod      code:aedecod-DIZZINESS ;
        prop:aesoc        code:aesoc-NERVOUS_SYSTEM_DISORDERS ;
        prop:denominator  "_NULL_" ;
        prop:factor       code:factor-USUBJID ;
        prop:measure      "12"^^xsd:int ;
        prop:procedure    code:procedure-countdistinct ;
        prop:saffl        code:saffl-Y ;
        prop:trta         code:trta-Xanomeline_High_Dose ;
        prop:unit         "_NULL_"^^xsd:string .

ds:obs444  a              qb:Observation ;
        rdfs:label        "444" ;
        qb:dataSet        ds:dataset-AE ;
        prop:aedecod      code:aedecod-ELECTROCARDIOGRAM_T_WAVE_INVERSION ;
        prop:aesoc        code:aesoc-INVESTIGATIONS ;
        prop:denominator  "_NULL_" ;
        prop:factor       code:factor-quantity ;
        prop:measure      "1"^^xsd:int ;
        prop:procedure    code:procedure-count ;
        prop:saffl        code:saffl-Y ;
        prop:trta         code:trta-Xanomeline_Low_Dose ;
        prop:unit         "_NULL_"^^xsd:string .

ds:obs619  a              qb:Observation ;
        rdfs:label        "619" ;
        qb:dataSet        ds:dataset-AE ;
        prop:aedecod      code:aedecod-HYPERTENSION ;
        prop:aesoc        code:aesoc-VASCULAR_DISORDERS ;
        prop:denominator  "_NULL_" ;
        prop:factor       code:factor-USUBJID ;
        prop:measure      "1"^^xsd:int ;
        prop:procedure    code:procedure-countdistinct ;
        prop:saffl        code:saffl-Y ;
        prop:trta         code:trta-Placebo ;
        prop:unit         "_NULL_"^^xsd:string .

ds:obs199  a              qb:Observation ;
        rdfs:label        "199" ;
        qb:dataSet        ds:dataset-AE ;
        prop:aedecod      code:aedecod-DIABETES_MELLITUS ;
        prop:aesoc        code:aesoc-METABOLISM_AND_NUTRITION_DISORDERS ;
        prop:denominator  "_NULL_" ;
        prop:factor       code:factor-quantity ;
        prop:measure      "1"^^xsd:int ;
        prop:procedure    code:procedure-count ;
        prop:saffl        code:saffl-Y ;
        prop:trta         code:trta-Placebo ;
        prop:unit         "_NULL_"^^xsd:string .

ds:obs490  a              qb:Observation ;
        rdfs:label        "490" ;
        qb:dataSet        ds:dataset-AE ;
        prop:aedecod      code:aedecod-PRURITUS ;
        prop:aesoc        code:aesoc-SKIN_AND_SUBCUTANEOUS_TISSUE_DISORDERS ;
        prop:denominator  "_NULL_" ;
        prop:factor       code:factor-quantity ;
        prop:measure      "35"^^xsd:int ;
        prop:procedure    code:procedure-count ;
        prop:saffl        code:saffl-Y ;
        prop:trta         code:trta-Xanomeline_Low_Dose ;
        prop:unit         "_NULL_"^^xsd:string .

code:aedecod-SUPRAVENTRICULAR_TACHYCARDIA
        a                  code:Aedecod , skos:Concept ;
        rdfs:comment       "Coded values from data source. No reconciliation against another source"@en ;
        skos:inScheme      code:aedecod ;
        skos:prefLabel     "SUPRAVENTRICULAR TACHYCARDIA" ;
        skos:topConceptOf  code:aedecod .

ds:obs665  a              qb:Observation ;
        rdfs:label        "665" ;
        qb:dataSet        ds:dataset-AE ;
        prop:aedecod      code:aedecod-CYSTITIS ;
        prop:aesoc        code:aesoc-INFECTIONS_AND_INFESTATIONS ;
        prop:denominator  "_NULL_" ;
        prop:factor       code:factor-USUBJID ;
        prop:measure      "1"^^xsd:int ;
        prop:procedure    code:procedure-countdistinct ;
        prop:saffl        code:saffl-Y ;
        prop:trta         code:trta-Xanomeline_High_Dose ;
        prop:unit         "_NULL_"^^xsd:string .

ds:obs412  a              qb:Observation ;
        rdfs:label        "412" ;
        qb:dataSet        ds:dataset-AE ;
        prop:aedecod      code:aedecod-APPLICATION_SITE_WARMTH ;
        prop:aesoc        code:aesoc-GENERAL_DISORDERS_AND_ADMINISTRATION_SITE_CONDITIONS ;
        prop:denominator  "_NULL_" ;
        prop:factor       code:factor-quantity ;
        prop:measure      "2"^^xsd:int ;
        prop:procedure    code:procedure-count ;
        prop:saffl        code:saffl-Y ;
        prop:trta         code:trta-Xanomeline_Low_Dose ;
        prop:unit         "_NULL_"^^xsd:string .

ds:obs167  a              qb:Observation ;
        rdfs:label        "167" ;
        qb:dataSet        ds:dataset-AE ;
        prop:aedecod      code:aedecod-CHILLS ;
        prop:aesoc        code:aesoc-GENERAL_DISORDERS_AND_ADMINISTRATION_SITE_CONDITIONS ;
        prop:denominator  "_NULL_" ;
        prop:factor       code:factor-quantity ;
        prop:measure      "3"^^xsd:int ;
        prop:procedure    code:procedure-count ;
        prop:saffl        code:saffl-Y ;
        prop:trta         code:trta-Placebo ;
        prop:unit         "_NULL_"^^xsd:string .

code:aedecod-DISORIENTATION
        a                  code:Aedecod , skos:Concept ;
        rdfs:comment       "Coded values from data source. No reconciliation against another source"@en ;
        skos:inScheme      code:aedecod ;
        skos:prefLabel     "DISORIENTATION" ;
        skos:topConceptOf  code:aedecod .

ds:obs633  a              qb:Observation ;
        rdfs:label        "633" ;
        qb:dataSet        ds:dataset-AE ;
        prop:aedecod      code:aedecod-ABDOMINAL_DISCOMFORT ;
        prop:aesoc        code:aesoc-GASTROINTESTINAL_DISORDERS ;
        prop:denominator  "_NULL_" ;
        prop:factor       code:factor-USUBJID ;
        prop:measure      "1"^^xsd:int ;
        prop:procedure    code:procedure-countdistinct ;
        prop:saffl        code:saffl-Y ;
        prop:trta         code:trta-Xanomeline_High_Dose ;
        prop:unit         "_NULL_"^^xsd:string .

ds:obs808  a              qb:Observation ;
        rdfs:label        "808" ;
        qb:dataSet        ds:dataset-AE ;
        prop:aedecod      code:aedecod-EXCORIATION ;
        prop:aesoc        code:aesoc-INJURY__POISONING_AND_PROCEDURAL_COMPLICATIONS ;
        prop:denominator  "_NULL_" ;
        prop:factor       code:factor-USUBJID ;
        prop:measure      "1"^^xsd:int ;
        prop:procedure    code:procedure-countdistinct ;
        prop:saffl        code:saffl-Y ;
        prop:trta         code:trta-Xanomeline_Low_Dose ;
        prop:unit         "_NULL_"^^xsd:string .

ds:obs388  a              qb:Observation ;
        rdfs:label        "388" ;
        qb:dataSet        ds:dataset-AE ;
        prop:aedecod      code:aedecod-WOLFF-PARKINSON-WHITE_SYNDROME ;
        prop:aesoc        code:aesoc-CARDIAC_DISORDERS ;
        prop:denominator  "_NULL_" ;
        prop:factor       code:factor-quantity ;
        prop:measure      "2"^^xsd:int ;
        prop:procedure    code:procedure-count ;
        prop:saffl        code:saffl-Y ;
        prop:trta         code:trta-Xanomeline_Low_Dose ;
        prop:unit         "_NULL_"^^xsd:string .

ds:obs135  a              qb:Observation ;
        rdfs:label        "135" ;
        qb:dataSet        ds:dataset-AE ;
        prop:aedecod      code:aedecod-BUNDLE_BRANCH_BLOCK_RIGHT ;
        prop:aesoc        code:aesoc-CARDIAC_DISORDERS ;
        prop:denominator  "_NULL_" ;
        prop:factor       code:factor-quantity ;
        prop:measure      "2"^^xsd:int ;
        prop:procedure    code:procedure-count ;
        prop:saffl        code:saffl-Y ;
        prop:trta         code:trta-Placebo ;
        prop:unit         "_NULL_"^^xsd:string .

ds:obs854  a              qb:Observation ;
        rdfs:label        "854" ;
        qb:dataSet        ds:dataset-AE ;
        prop:aedecod      code:aedecod-DYSPNOEA ;
        prop:aesoc        code:aesoc-RESPIRATORY__THORACIC_AND_MEDIASTINAL_DISORDERS ;
        prop:denominator  "_NULL_" ;
        prop:factor       code:factor-USUBJID ;
        prop:measure      "1"^^xsd:int ;
        prop:procedure    code:procedure-countdistinct ;
        prop:saffl        code:saffl-Y ;
        prop:trta         code:trta-Xanomeline_Low_Dose ;
        prop:unit         "_NULL_"^^xsd:string .

code:aedecod-EYE_PRURITUS
        a                  code:Aedecod , skos:Concept ;
        rdfs:comment       "Coded values from data source. No reconciliation against another source"@en ;
        skos:inScheme      code:aedecod ;
        skos:prefLabel     "EYE PRURITUS" ;
        skos:topConceptOf  code:aedecod .

ds:obs601  a              qb:Observation ;
        rdfs:label        "601" ;
        qb:dataSet        ds:dataset-AE ;
        prop:aedecod      code:aedecod-DYSPNOEA ;
        prop:aesoc        code:aesoc-RESPIRATORY__THORACIC_AND_MEDIASTINAL_DISORDERS ;
        prop:denominator  "_NULL_" ;
        prop:factor       code:factor-USUBJID ;
        prop:measure      "1"^^xsd:int ;
        prop:procedure    code:procedure-countdistinct ;
        prop:saffl        code:saffl-Y ;
        prop:trta         code:trta-Placebo ;
        prop:unit         "_NULL_"^^xsd:string .

ds:obs181  a              qb:Observation ;
        rdfs:label        "181" ;
        qb:dataSet        ds:dataset-AE ;
        prop:aedecod      code:aedecod-URINARY_TRACT_INFECTION ;
        prop:aesoc        code:aesoc-INFECTIONS_AND_INFESTATIONS ;
        prop:denominator  "_NULL_" ;
        prop:factor       code:factor-quantity ;
        prop:measure      "4"^^xsd:int ;
        prop:procedure    code:procedure-count ;
        prop:saffl        code:saffl-Y ;
        prop:trta         code:trta-Placebo ;
        prop:unit         "_NULL_"^^xsd:string .

code:aesoc  a                 skos:ConceptScheme ;
        rdfs:label            "Codelist scheme: aesoc"@en ;
        rrdfqbcrnd0:codeType  "DATA" ;
        skos:hasTopConcept    code:aesoc-GASTROINTESTINAL_DISORDERS , code:aesoc-CARDIAC_DISORDERS , code:aesoc-VASCULAR_DISORDERS , code:aesoc-EYE_DISORDERS , code:aesoc-SURGICAL_AND_MEDICAL_PROCEDURES , code:aesoc-RENAL_AND_URINARY_DISORDERS , code:aesoc-PSYCHIATRIC_DISORDERS , code:aesoc-EAR_AND_LABYRINTH_DISORDERS , code:aesoc-METABOLISM_AND_NUTRITION_DISORDERS , code:aesoc-INVESTIGATIONS , code:aesoc-SKIN_AND_SUBCUTANEOUS_TISSUE_DISORDERS , code:aesoc-REPRODUCTIVE_SYSTEM_AND_BREAST_DISORDERS , code:aesoc-NERVOUS_SYSTEM_DISORDERS , code:aesoc-CONGENITAL__FAMILIAL_AND_GENETIC_DISORDERS , code:aesoc-GENERAL_DISORDERS_AND_ADMINISTRATION_SITE_CONDITIONS , code:aesoc-IMMUNE_SYSTEM_DISORDERS , code:aesoc-INFECTIONS_AND_INFESTATIONS , code:aesoc-RESPIRATORY__THORACIC_AND_MEDIASTINAL_DISORDERS , code:aesoc-_ALL_ , code:aesoc-SOCIAL_CIRCUMSTANCES , code:aesoc-MUSCULOSKELETAL_AND_CONNECTIVE_TISSUE_DISORDERS , code:aesoc-NEOPLASMS_BENIGN__MALIGNANT_AND_UNSPECIFIED__INCL_CYSTS_AND_POLYPS_ , code:aesoc-INJURY__POISONING_AND_PROCEDURAL_COMPLICATIONS , code:aesoc-HEPATOBILIARY_DISORDERS ;
        skos:notation         "CL_AESOC" ;
        skos:note             "Specifies the aesoc for each observation, group of obs. or all categories (_ALL_)label "@en ;
        skos:prefLabel        "Codelist scheme: aesoc"@en .

ds:obs356  a              qb:Observation ;
        rdfs:label        "356" ;
        qb:dataSet        ds:dataset-AE ;
        prop:aedecod      code:aedecod-PHARYNGOLARYNGEAL_PAIN ;
        prop:aesoc        code:aesoc-RESPIRATORY__THORACIC_AND_MEDIASTINAL_DISORDERS ;
        prop:denominator  "_NULL_" ;
        prop:factor       code:factor-quantity ;
        prop:measure      "1"^^xsd:int ;
        prop:procedure    code:procedure-count ;
        prop:saffl        code:saffl-Y ;
        prop:trta         code:trta-Xanomeline_High_Dose ;
        prop:unit         "_NULL_"^^xsd:string .

ds:obs103  a              qb:Observation ;
        rdfs:label        "103" ;
        qb:dataSet        ds:dataset-AE ;
        prop:aedecod      code:aedecod-_ALL_ ;
        prop:aesoc        code:aesoc-REPRODUCTIVE_SYSTEM_AND_BREAST_DISORDERS ;
        prop:denominator  "_NULL_" ;
        prop:factor       code:factor-USUBJID ;
        prop:measure      "1"^^xsd:int ;
        prop:procedure    code:procedure-countdistinct ;
        prop:saffl        code:saffl-Y ;
        prop:trta         code:trta-Xanomeline_High_Dose ;
        prop:unit         "_NULL_"^^xsd:string .

ds:obs822  a              qb:Observation ;
        rdfs:label        "822" ;
        qb:dataSet        ds:dataset-AE ;
        prop:aedecod      code:aedecod-FOOD_CRAVING ;
        prop:aesoc        code:aesoc-METABOLISM_AND_NUTRITION_DISORDERS ;
        prop:denominator  "_NULL_" ;
        prop:factor       code:factor-USUBJID ;
        prop:measure      "1"^^xsd:int ;
        prop:procedure    code:procedure-countdistinct ;
        prop:saffl        code:saffl-Y ;
        prop:trta         code:trta-Xanomeline_Low_Dose ;
        prop:unit         "_NULL_"^^xsd:string .

code:aedecod-COMPLEX_PARTIAL_SEIZURES
        a                  code:Aedecod , skos:Concept ;
        rdfs:comment       "Coded values from data source. No reconciliation against another source"@en ;
        skos:inScheme      code:aedecod ;
        skos:prefLabel     "COMPLEX PARTIAL SEIZURES" ;
        skos:topConceptOf  code:aedecod .

ds:obs577  a              qb:Observation ;
        rdfs:label        "577" ;
        qb:dataSet        ds:dataset-AE ;
        prop:aedecod      code:aedecod-ARTHRITIS ;
        prop:aesoc        code:aesoc-MUSCULOSKELETAL_AND_CONNECTIVE_TISSUE_DISORDERS ;
        prop:denominator  "_NULL_" ;
        prop:factor       code:factor-USUBJID ;
        prop:measure      "1"^^xsd:int ;
        prop:procedure    code:procedure-countdistinct ;
        prop:saffl        code:saffl-Y ;
        prop:trta         code:trta-Placebo ;
        prop:unit         "_NULL_"^^xsd:string .

ds:obs324  a              qb:Observation ;
        rdfs:label        "324" ;
        qb:dataSet        ds:dataset-AE ;
        prop:aedecod      code:aedecod-DIZZINESS ;
        prop:aesoc        code:aesoc-NERVOUS_SYSTEM_DISORDERS ;
        prop:denominator  "_NULL_" ;
        prop:factor       code:factor-quantity ;
        prop:measure      "18"^^xsd:int ;
        prop:procedure    code:procedure-count ;
        prop:saffl        code:saffl-Y ;
        prop:trta         code:trta-Xanomeline_High_Dose ;
        prop:unit         "_NULL_"^^xsd:string .

code:aesoc-METABOLISM_AND_NUTRITION_DISORDERS
        a                  code:Aesoc , skos:Concept ;
        rdfs:comment       "Coded values from data source. No reconciliation against another source"@en ;
        skos:inScheme      code:aesoc ;
        skos:prefLabel     "METABOLISM AND NUTRITION DISORDERS" ;
        skos:topConceptOf  code:aesoc .

ds:obs29  a               qb:Observation ;
        rdfs:label        "29" ;
        qb:dataSet        ds:dataset-AE ;
        prop:aedecod      code:aedecod-_ALL_ ;
        prop:aesoc        code:aesoc-EYE_DISORDERS ;
        prop:denominator  "_NULL_" ;
        prop:factor       code:factor-quantity ;
        prop:measure      "2"^^xsd:int ;
        prop:procedure    code:procedure-count ;
        prop:saffl        code:saffl-Y ;
        prop:trta         code:trta-Xanomeline_High_Dose ;
        prop:unit         "_NULL_"^^xsd:string .

ds:obs798  a              qb:Observation ;
        rdfs:label        "798" ;
        qb:dataSet        ds:dataset-AE ;
        prop:aedecod      code:aedecod-HYPERSENSITIVITY ;
        prop:aesoc        code:aesoc-IMMUNE_SYSTEM_DISORDERS ;
        prop:denominator  "_NULL_" ;
        prop:factor       code:factor-USUBJID ;
        prop:measure      "1"^^xsd:int ;
        prop:procedure    code:procedure-countdistinct ;
        prop:saffl        code:saffl-Y ;
        prop:trta         code:trta-Xanomeline_Low_Dose ;
        prop:unit         "_NULL_"^^xsd:string .

ds:obs370  a              qb:Observation ;
        rdfs:label        "370" ;
        qb:dataSet        ds:dataset-AE ;
        prop:aedecod      code:aedecod-SKIN_IRRITATION ;
        prop:aesoc        code:aesoc-SKIN_AND_SUBCUTANEOUS_TISSUE_DISORDERS ;
        prop:denominator  "_NULL_" ;
        prop:factor       code:factor-quantity ;
        prop:measure      "8"^^xsd:int ;
        prop:procedure    code:procedure-count ;
        prop:saffl        code:saffl-Y ;
        prop:trta         code:trta-Xanomeline_High_Dose ;
        prop:unit         "_NULL_"^^xsd:string .

ds:obs545  a              qb:Observation ;
        rdfs:label        "545" ;
        qb:dataSet        ds:dataset-AE ;
        prop:aedecod      code:aedecod-BRONCHITIS ;
        prop:aesoc        code:aesoc-INFECTIONS_AND_INFESTATIONS ;
        prop:denominator  "_NULL_" ;
        prop:factor       code:factor-USUBJID ;
        prop:measure      "1"^^xsd:int ;
        prop:procedure    code:procedure-countdistinct ;
        prop:saffl        code:saffl-Y ;
        prop:trta         code:trta-Placebo ;
        prop:unit         "_NULL_"^^xsd:string .

code:aedecod-RASH_PAPULAR
        a                  code:Aedecod , skos:Concept ;
        rdfs:comment       "Coded values from data source. No reconciliation against another source"@en ;
        skos:inScheme      code:aedecod ;
        skos:prefLabel     "RASH PAPULAR" ;
        skos:topConceptOf  code:aedecod .

code:saffl  a                 skos:ConceptScheme ;
        rdfs:label            "Codelist scheme: saffl"@en ;
        rrdfqbcrnd0:codeType  "DATA" ;
        skos:hasTopConcept    code:saffl-Y ;
        skos:notation         "CL_SAFFL" ;
        skos:note             "Specifies the saffl for each observation, group of obs. or all categories (_ALL_)label "@en ;
        skos:prefLabel        "Codelist scheme: saffl"@en .

ds:obs75  a               qb:Observation ;
        rdfs:label        "75" ;
        qb:dataSet        ds:dataset-AE ;
        prop:aedecod      code:aedecod-_ALL_ ;
        prop:aesoc        code:aesoc-INJURY__POISONING_AND_PROCEDURAL_COMPLICATIONS ;
        prop:denominator  "_NULL_" ;
        prop:factor       code:factor-USUBJID ;
        prop:measure      "4"^^xsd:int ;
        prop:procedure    code:procedure-countdistinct ;
        prop:saffl        code:saffl-Y ;
        prop:trta         code:trta-Placebo ;
        prop:unit         "_NULL_"^^xsd:string .

ds:obs766  a              qb:Observation ;
        rdfs:label        "766" ;
        qb:dataSet        ds:dataset-AE ;
        prop:aedecod      code:aedecod-CONJUNCTIVAL_HAEMORRHAGE ;
        prop:aesoc        code:aesoc-EYE_DISORDERS ;
        prop:denominator  "_NULL_" ;
        prop:factor       code:factor-USUBJID ;
        prop:measure      "1"^^xsd:int ;
        prop:procedure    code:procedure-countdistinct ;
        prop:saffl        code:saffl-Y ;
        prop:trta         code:trta-Xanomeline_Low_Dose ;
        prop:unit         "_NULL_"^^xsd:string .

ds:obs591  a              qb:Observation ;
        rdfs:label        "591" ;
        qb:dataSet        ds:dataset-AE ;
        prop:aedecod      code:aedecod-DISORIENTATION ;
        prop:aesoc        code:aesoc-PSYCHIATRIC_DISORDERS ;
        prop:denominator  "_NULL_" ;
        prop:factor       code:factor-USUBJID ;
        prop:measure      "1"^^xsd:int ;
        prop:procedure    code:procedure-countdistinct ;
        prop:saffl        code:saffl-Y ;
        prop:trta         code:trta-Placebo ;
        prop:unit         "_NULL_"^^xsd:string .

code:aedecod-FOOD_CRAVING
        a                  code:Aedecod , skos:Concept ;
        rdfs:comment       "Coded values from data source. No reconciliation against another source"@en ;
        skos:inScheme      code:aedecod ;
        skos:prefLabel     "FOOD CRAVING" ;
        skos:topConceptOf  code:aedecod .

code:aedecod-INSOMNIA
        a                  code:Aedecod , skos:Concept ;
        rdfs:comment       "Coded values from data source. No reconciliation against another source"@en ;
        skos:inScheme      code:aedecod ;
        skos:prefLabel     "INSOMNIA" ;
        skos:topConceptOf  code:aedecod .

code:aedecod-APPLICATION_SITE_SWELLING
        a                  code:Aedecod , skos:Concept ;
        rdfs:comment       "Coded values from data source. No reconciliation against another source"@en ;
        skos:inScheme      code:aedecod ;
        skos:prefLabel     "APPLICATION SITE SWELLING" ;
        skos:topConceptOf  code:aedecod .

code:aesoc-GASTROINTESTINAL_DISORDERS
        a                  code:Aesoc , skos:Concept ;
        rdfs:comment       "Coded values from data source. No reconciliation against another source"@en ;
        skos:inScheme      code:aesoc ;
        skos:prefLabel     "GASTROINTESTINAL DISORDERS" ;
        skos:topConceptOf  code:aesoc .

ds:obs513  a              qb:Observation ;
        rdfs:label        "513" ;
        qb:dataSet        ds:dataset-AE ;
        prop:aedecod      code:aedecod-SUPRAVENTRICULAR_EXTRASYSTOLES ;
        prop:aesoc        code:aesoc-CARDIAC_DISORDERS ;
        prop:denominator  "_NULL_" ;
        prop:factor       code:factor-USUBJID ;
        prop:measure      "1"^^xsd:int ;
        prop:procedure    code:procedure-countdistinct ;
        prop:saffl        code:saffl-Y ;
        prop:trta         code:trta-Placebo ;
        prop:unit         "_NULL_"^^xsd:string .

code:aedecod-BRADYCARDIA
        a                  code:Aedecod , skos:Concept ;
        rdfs:comment       "Coded values from data source. No reconciliation against another source"@en ;
        skos:inScheme      code:aedecod ;
        skos:prefLabel     "BRADYCARDIA" ;
        skos:topConceptOf  code:aedecod .

ds:obs43  a               qb:Observation ;
        rdfs:label        "43" ;
        qb:dataSet        ds:dataset-AE ;
        prop:aedecod      code:aedecod-_ALL_ ;
        prop:aesoc        code:aesoc-RESPIRATORY__THORACIC_AND_MEDIASTINAL_DISORDERS ;
        prop:denominator  "_NULL_" ;
        prop:factor       code:factor-quantity ;
        prop:measure      "22"^^xsd:int ;
        prop:procedure    code:procedure-count ;
        prop:saffl        code:saffl-Y ;
        prop:trta         code:trta-Xanomeline_High_Dose ;
        prop:unit         "_NULL_"^^xsd:string .

ds:obs268  a              qb:Observation ;
        rdfs:label        "268" ;
        qb:dataSet        ds:dataset-AE ;
        prop:aedecod      code:aedecod-VOMITING ;
        prop:aesoc        code:aesoc-GASTROINTESTINAL_DISORDERS ;
        prop:denominator  "_NULL_" ;
        prop:factor       code:factor-quantity ;
        prop:measure      "9"^^xsd:int ;
        prop:procedure    code:procedure-count ;
        prop:saffl        code:saffl-Y ;
        prop:trta         code:trta-Xanomeline_High_Dose ;
        prop:unit         "_NULL_"^^xsd:string .

code:aedecod-ACROCHORDON_EXCISION
        a                  code:Aedecod , skos:Concept ;
        rdfs:comment       "Coded values from data source. No reconciliation against another source"@en ;
        skos:inScheme      code:aedecod ;
        skos:prefLabel     "ACROCHORDON EXCISION" ;
        skos:topConceptOf  code:aedecod .

ds:obs734  a              qb:Observation ;
        rdfs:label        "734" ;
        qb:dataSet        ds:dataset-AE ;
        prop:aedecod      code:aedecod-BLISTER ;
        prop:aesoc        code:aesoc-SKIN_AND_SUBCUTANEOUS_TISSUE_DISORDERS ;
        prop:denominator  "_NULL_" ;
        prop:factor       code:factor-USUBJID ;
        prop:measure      "1"^^xsd:int ;
        prop:procedure    code:procedure-countdistinct ;
        prop:saffl        code:saffl-Y ;
        prop:trta         code:trta-Xanomeline_High_Dose ;
        prop:unit         "_NULL_"^^xsd:string .

ds:obs11  a               qb:Observation ;
        rdfs:label        "11" ;
        qb:dataSet        ds:dataset-AE ;
        prop:aedecod      code:aedecod-_ALL_ ;
        prop:aesoc        code:aesoc-GENERAL_DISORDERS_AND_ADMINISTRATION_SITE_CONDITIONS ;
        prop:denominator  "_NULL_" ;
        prop:factor       code:factor-quantity ;
        prop:measure      "48"^^xsd:int ;
        prop:procedure    code:procedure-count ;
        prop:saffl        code:saffl-Y ;
        prop:trta         code:trta-Placebo ;
        prop:unit         "_NULL_"^^xsd:string .

code:aedecod-CALCULUS_URETHRAL
        a                  code:Aedecod , skos:Concept ;
        rdfs:comment       "Coded values from data source. No reconciliation against another source"@en ;
        skos:inScheme      code:aedecod ;
        skos:prefLabel     "CALCULUS URETHRAL" ;
        skos:topConceptOf  code:aedecod .

ds:obs489  a              qb:Observation ;
        rdfs:label        "489" ;
        qb:dataSet        ds:dataset-AE ;
        prop:aedecod      code:aedecod-HYPERHIDROSIS ;
        prop:aesoc        code:aesoc-SKIN_AND_SUBCUTANEOUS_TISSUE_DISORDERS ;
        prop:denominator  "_NULL_" ;
        prop:factor       code:factor-quantity ;
        prop:measure      "5"^^xsd:int ;
        prop:procedure    code:procedure-count ;
        prop:saffl        code:saffl-Y ;
        prop:trta         code:trta-Xanomeline_Low_Dose ;
        prop:unit         "_NULL_"^^xsd:string .

ds:obs780  a              qb:Observation ;
        rdfs:label        "780" ;
        qb:dataSet        ds:dataset-AE ;
        prop:aedecod      code:aedecod-APPLICATION_SITE_IRRITATION ;
        prop:aesoc        code:aesoc-GENERAL_DISORDERS_AND_ADMINISTRATION_SITE_CONDITIONS ;
        prop:denominator  "_NULL_" ;
        prop:factor       code:factor-USUBJID ;
        prop:measure      "9"^^xsd:int ;
        prop:procedure    code:procedure-countdistinct ;
        prop:saffl        code:saffl-Y ;
        prop:trta         code:trta-Xanomeline_Low_Dose ;
        prop:unit         "_NULL_"^^xsd:string .

ds:obs236  a              qb:Observation ;
        rdfs:label        "236" ;
        qb:dataSet        ds:dataset-AE ;
        prop:aedecod      code:aedecod-DERMATITIS_ATOPIC ;
        prop:aesoc        code:aesoc-SKIN_AND_SUBCUTANEOUS_TISSUE_DISORDERS ;
        prop:denominator  "_NULL_" ;
        prop:factor       code:factor-quantity ;
        prop:measure      "1"^^xsd:int ;
        prop:procedure    code:procedure-count ;
        prop:saffl        code:saffl-Y ;
        prop:trta         code:trta-Placebo ;
        prop:unit         "_NULL_"^^xsd:string .

ds:obs702  a              qb:Observation ;
        rdfs:label        "702" ;
        qb:dataSet        ds:dataset-AE ;
        prop:aedecod      code:aedecod-PAROSMIA ;
        prop:aesoc        code:aesoc-NERVOUS_SYSTEM_DISORDERS ;
        prop:denominator  "_NULL_" ;
        prop:factor       code:factor-USUBJID ;
        prop:measure      "1"^^xsd:int ;
        prop:procedure    code:procedure-countdistinct ;
        prop:saffl        code:saffl-Y ;
        prop:trta         code:trta-Xanomeline_High_Dose ;
        prop:unit         "_NULL_"^^xsd:string .

ds:obs282  a              qb:Observation ;
        rdfs:label        "282" ;
        qb:dataSet        ds:dataset-AE ;
        prop:aedecod      code:aedecod-CHEST_PAIN ;
        prop:aesoc        code:aesoc-GENERAL_DISORDERS_AND_ADMINISTRATION_SITE_CONDITIONS ;
        prop:denominator  "_NULL_" ;
        prop:factor       code:factor-quantity ;
        prop:measure      "2"^^xsd:int ;
        prop:procedure    code:procedure-count ;
        prop:saffl        code:saffl-Y ;
        prop:trta         code:trta-Xanomeline_High_Dose ;
        prop:unit         "_NULL_"^^xsd:string .

code:aedecod-SKIN_ODOUR_ABNORMAL
        a                  code:Aedecod , skos:Concept ;
        rdfs:comment       "Coded values from data source. No reconciliation against another source"@en ;
        skos:inScheme      code:aedecod ;
        skos:prefLabel     "SKIN ODOUR ABNORMAL" ;
        skos:topConceptOf  code:aedecod .

ds:obs457  a              qb:Observation ;
        rdfs:label        "457" ;
        qb:dataSet        ds:dataset-AE ;
        prop:aedecod      code:aedecod-BALANCE_DISORDER ;
        prop:aesoc        code:aesoc-NERVOUS_SYSTEM_DISORDERS ;
        prop:denominator  "_NULL_" ;
        prop:factor       code:factor-quantity ;
        prop:measure      "3"^^xsd:int ;
        prop:procedure    code:procedure-count ;
        prop:saffl        code:saffl-Y ;
        prop:trta         code:trta-Xanomeline_Low_Dose ;
        prop:unit         "_NULL_"^^xsd:string .

code:trta-Xanomeline_High_Dose
        a                  code:Trta , skos:Concept ;
        rdfs:comment       "Coded values from data source. No reconciliation against another source"@en ;
        skos:inScheme      code:trta ;
        skos:prefLabel     "Xanomeline High Dose" ;
        skos:topConceptOf  code:trta .

ds:obs204  a              qb:Observation ;
        rdfs:label        "204" ;
        qb:dataSet        ds:dataset-AE ;
        prop:aedecod      code:aedecod-ARTHRITIS ;
        prop:aesoc        code:aesoc-MUSCULOSKELETAL_AND_CONNECTIVE_TISSUE_DISORDERS ;
        prop:denominator  "_NULL_" ;
        prop:factor       code:factor-quantity ;
        prop:measure      "2"^^xsd:int ;
        prop:procedure    code:procedure-count ;
        prop:saffl        code:saffl-Y ;
        prop:trta         code:trta-Placebo ;
        prop:unit         "_NULL_"^^xsd:string .

ds:obs250  a              qb:Observation ;
        rdfs:label        "250" ;
        qb:dataSet        ds:dataset-AE ;
        prop:aedecod      code:aedecod-ATRIAL_FLUTTER ;
        prop:aesoc        code:aesoc-CARDIAC_DISORDERS ;
        prop:denominator  "_NULL_" ;
        prop:factor       code:factor-quantity ;
        prop:measure      "2"^^xsd:int ;
        prop:procedure    code:procedure-count ;
        prop:saffl        code:saffl-Y ;
        prop:trta         code:trta-Xanomeline_High_Dose ;
        prop:unit         "_NULL_"^^xsd:string .

ds:obs678  a              qb:Observation ;
        rdfs:label        "678" ;
        qb:dataSet        ds:dataset-AE ;
        prop:aedecod      code:aedecod-BIOPSY ;
        prop:aesoc        code:aesoc-INVESTIGATIONS ;
        prop:denominator  "_NULL_" ;
        prop:factor       code:factor-USUBJID ;
        prop:measure      "1"^^xsd:int ;
        prop:procedure    code:procedure-countdistinct ;
        prop:saffl        code:saffl-Y ;
        prop:trta         code:trta-Xanomeline_High_Dose ;
        prop:unit         "_NULL_"^^xsd:string .

ds:obs425  a              qb:Observation ;
        rdfs:label        "425" ;
        qb:dataSet        ds:dataset-AE ;
        prop:aedecod      code:aedecod-HYPERSENSITIVITY ;
        prop:aesoc        code:aesoc-IMMUNE_SYSTEM_DISORDERS ;
        prop:denominator  "_NULL_" ;
        prop:factor       code:factor-quantity ;
        prop:measure      "2"^^xsd:int ;
        prop:procedure    code:procedure-count ;
        prop:saffl        code:saffl-Y ;
        prop:trta         code:trta-Xanomeline_Low_Dose ;
        prop:unit         "_NULL_"^^xsd:string .

code:aedecod-WOLFF-PARKINSON-WHITE_SYNDROME
        a                  code:Aedecod , skos:Concept ;
        rdfs:comment       "Coded values from data source. No reconciliation against another source"@en ;
        skos:inScheme      code:aedecod ;
        skos:prefLabel     "WOLFF-PARKINSON-WHITE SYNDROME" ;
        skos:topConceptOf  code:aedecod .

ds:obs471  a              qb:Observation ;
        rdfs:label        "471" ;
        qb:dataSet        ds:dataset-AE ;
        prop:aedecod      code:aedecod-CONFUSIONAL_STATE ;
        prop:aesoc        code:aesoc-PSYCHIATRIC_DISORDERS ;
        prop:denominator  "_NULL_" ;
        prop:factor       code:factor-quantity ;
        prop:measure      "3"^^xsd:int ;
        prop:procedure    code:procedure-count ;
        prop:saffl        code:saffl-Y ;
        prop:trta         code:trta-Xanomeline_Low_Dose ;
        prop:unit         "_NULL_"^^xsd:string .

ds:obs646  a              qb:Observation ;
        rdfs:label        "646" ;
        qb:dataSet        ds:dataset-AE ;
        prop:aedecod      code:aedecod-APPLICATION_SITE_PAIN ;
        prop:aesoc        code:aesoc-GENERAL_DISORDERS_AND_ADMINISTRATION_SITE_CONDITIONS ;
        prop:denominator  "_NULL_" ;
        prop:factor       code:factor-USUBJID ;
        prop:measure      "2"^^xsd:int ;
        prop:procedure    code:procedure-countdistinct ;
        prop:saffl        code:saffl-Y ;
        prop:trta         code:trta-Xanomeline_High_Dose ;
        prop:unit         "_NULL_"^^xsd:string .

ds:obs692  a              qb:Observation ;
        rdfs:label        "692" ;
        qb:dataSet        ds:dataset-AE ;
        prop:aedecod      code:aedecod-MYALGIA ;
        prop:aesoc        code:aesoc-MUSCULOSKELETAL_AND_CONNECTIVE_TISSUE_DISORDERS ;
        prop:denominator  "_NULL_" ;
        prop:factor       code:factor-USUBJID ;
        prop:measure      "1"^^xsd:int ;
        prop:procedure    code:procedure-countdistinct ;
        prop:saffl        code:saffl-Y ;
        prop:trta         code:trta-Xanomeline_High_Dose ;
        prop:unit         "_NULL_"^^xsd:string .

ds:obs148  a              qb:Observation ;
        rdfs:label        "148" ;
        qb:dataSet        ds:dataset-AE ;
        prop:aedecod      code:aedecod-GLAUCOMA ;
        prop:aesoc        code:aesoc-EYE_DISORDERS ;
        prop:denominator  "_NULL_" ;
        prop:factor       code:factor-quantity ;
        prop:measure      "1"^^xsd:int ;
        prop:procedure    code:procedure-count ;
        prop:saffl        code:saffl-Y ;
        prop:trta         code:trta-Placebo ;
        prop:unit         "_NULL_"^^xsd:string .

ds:obs867  a              qb:Observation ;
        rdfs:label        "867" ;
        qb:dataSet        ds:dataset-AE ;
        prop:aedecod      code:aedecod-RASH_PRURITIC ;
        prop:aesoc        code:aesoc-SKIN_AND_SUBCUTANEOUS_TISSUE_DISORDERS ;
        prop:denominator  "_NULL_" ;
        prop:factor       code:factor-USUBJID ;
        prop:measure      "1"^^xsd:int ;
        prop:procedure    code:procedure-countdistinct ;
        prop:saffl        code:saffl-Y ;
        prop:trta         code:trta-Xanomeline_Low_Dose ;
        prop:unit         "_NULL_"^^xsd:string .

ds:obs614  a              qb:Observation ;
        rdfs:label        "614" ;
        qb:dataSet        ds:dataset-AE ;
        prop:aedecod      code:aedecod-RASH ;
        prop:aesoc        code:aesoc-SKIN_AND_SUBCUTANEOUS_TISSUE_DISORDERS ;
        prop:denominator  "_NULL_" ;
        prop:factor       code:factor-USUBJID ;
        prop:measure      "5"^^xsd:int ;
        prop:procedure    code:procedure-countdistinct ;
        prop:saffl        code:saffl-Y ;
        prop:trta         code:trta-Placebo ;
        prop:unit         "_NULL_"^^xsd:string .

ds:obs194  a              qb:Observation ;
        rdfs:label        "194" ;
        qb:dataSet        ds:dataset-AE ;
        prop:aedecod      code:aedecod-ELECTROCARDIOGRAM_T_WAVE_INVERSION ;
        prop:aesoc        code:aesoc-INVESTIGATIONS ;
        prop:denominator  "_NULL_" ;
        prop:factor       code:factor-quantity ;
        prop:measure      "3"^^xsd:int ;
        prop:procedure    code:procedure-count ;
        prop:saffl        code:saffl-Y ;
        prop:trta         code:trta-Placebo ;
        prop:unit         "_NULL_"^^xsd:string .

ds:obs369  a              qb:Observation ;
        rdfs:label        "369" ;
        qb:dataSet        ds:dataset-AE ;
        prop:aedecod      code:aedecod-RASH_PRURITIC ;
        prop:aesoc        code:aesoc-SKIN_AND_SUBCUTANEOUS_TISSUE_DISORDERS ;
        prop:denominator  "_NULL_" ;
        prop:factor       code:factor-quantity ;
        prop:measure      "3"^^xsd:int ;
        prop:procedure    code:procedure-count ;
        prop:saffl        code:saffl-Y ;
        prop:trta         code:trta-Xanomeline_High_Dose ;
        prop:unit         "_NULL_"^^xsd:string .

ds:obs660  a              qb:Observation ;
        rdfs:label        "660" ;
        qb:dataSet        ds:dataset-AE ;
        prop:aedecod      code:aedecod-MALAISE ;
        prop:aesoc        code:aesoc-GENERAL_DISORDERS_AND_ADMINISTRATION_SITE_CONDITIONS ;
        prop:denominator  "_NULL_" ;
        prop:factor       code:factor-USUBJID ;
        prop:measure      "2"^^xsd:int ;
        prop:procedure    code:procedure-countdistinct ;
        prop:saffl        code:saffl-Y ;
        prop:trta         code:trta-Xanomeline_High_Dose ;
        prop:unit         "_NULL_"^^xsd:string .

ds:obs116  a              qb:Observation ;
        rdfs:label        "116" ;
        qb:dataSet        ds:dataset-AE ;
        prop:aedecod      code:aedecod-_ALL_ ;
        prop:aesoc        code:aesoc-INFECTIONS_AND_INFESTATIONS ;
        prop:denominator  "_NULL_" ;
        prop:factor       code:factor-USUBJID ;
        prop:measure      "10"^^xsd:int ;
        prop:procedure    code:procedure-countdistinct ;
        prop:saffl        code:saffl-Y ;
        prop:trta         code:trta-Xanomeline_Low_Dose ;
        prop:unit         "_NULL_"^^xsd:string .

ds:obs835  a              qb:Observation ;
        rdfs:label        "835" ;
        qb:dataSet        ds:dataset-AE ;
        prop:aedecod      code:aedecod-HEMIANOPIA_HOMONYMOUS ;
        prop:aesoc        code:aesoc-NERVOUS_SYSTEM_DISORDERS ;
        prop:denominator  "_NULL_" ;
        prop:factor       code:factor-USUBJID ;
        prop:measure      "1"^^xsd:int ;
        prop:procedure    code:procedure-countdistinct ;
        prop:saffl        code:saffl-Y ;
        prop:trta         code:trta-Xanomeline_Low_Dose ;
        prop:unit         "_NULL_"^^xsd:string .

dccs:saffl  a         qb:ComponentSpecification ;
        rdfs:label    "Safety Population Flag" ;
        qb:dimension  prop:saffl .

ds:obs162  a              qb:Observation ;
        rdfs:label        "162" ;
        qb:dataSet        ds:dataset-AE ;
        prop:aedecod      code:aedecod-APPLICATION_SITE_IRRITATION ;
        prop:aesoc        code:aesoc-GENERAL_DISORDERS_AND_ADMINISTRATION_SITE_CONDITIONS ;
        prop:denominator  "_NULL_" ;
        prop:factor       code:factor-quantity ;
        prop:measure      "7"^^xsd:int ;
        prop:procedure    code:procedure-count ;
        prop:saffl        code:saffl-Y ;
        prop:trta         code:trta-Placebo ;
        prop:unit         "_NULL_"^^xsd:string .

code:aedecod-NEPHROLITHIASIS
        a                  code:Aedecod , skos:Concept ;
        rdfs:comment       "Coded values from data source. No reconciliation against another source"@en ;
        skos:inScheme      code:aedecod ;
        skos:prefLabel     "NEPHROLITHIASIS" ;
        skos:topConceptOf  code:aedecod .

ds:obs337  a              qb:Observation ;
        rdfs:label        "337" ;
        qb:dataSet        ds:dataset-AE ;
        prop:aedecod      code:aedecod-DELIRIUM ;
        prop:aesoc        code:aesoc-PSYCHIATRIC_DISORDERS ;
        prop:denominator  "_NULL_" ;
        prop:factor       code:factor-quantity ;
        prop:measure      "1"^^xsd:int ;
        prop:procedure    code:procedure-count ;
        prop:saffl        code:saffl-Y ;
        prop:trta         code:trta-Xanomeline_High_Dose ;
        prop:unit         "_NULL_"^^xsd:string .

ds:obs803  a              qb:Observation ;
        rdfs:label        "803" ;
        qb:dataSet        ds:dataset-AE ;
        prop:aedecod      code:aedecod-ONYCHOMYCOSIS ;
        prop:aesoc        code:aesoc-INFECTIONS_AND_INFESTATIONS ;
        prop:denominator  "_NULL_" ;
        prop:factor       code:factor-USUBJID ;
        prop:measure      "1"^^xsd:int ;
        prop:procedure    code:procedure-countdistinct ;
        prop:saffl        code:saffl-Y ;
        prop:trta         code:trta-Xanomeline_Low_Dose ;
