@prefix dccs:  <http://www.example.org/dc/ae/dccs/> .
@prefix crnd-measure: <http://www.example.org/dc/measure#> .
@prefix code:  <http://www.example.org/dc/code/> .
@prefix cts:   <http://rdf.cdisc.org/ct/schema#> .
@prefix pav:   <http://purl.org/pav> .
@prefix owl:   <http://www.w3.org/2002/07/owl#> .
@prefix xsd:   <http://www.w3.org/2001/XMLSchema#> .
@prefix skos:  <http://www.w3.org/2004/02/skos/core#> .
@prefix rdfs:  <http://www.w3.org/2000/01/rdf-schema#> .
@prefix crnd-attribute: <http://www.example.org/dc/attribute#> .
@prefix sdtmct: <http://rdf.cdisc.org/sdtm-terminology#> .
@prefix ds:    <http://www.example.org/dc/ae/ds/> .
@prefix qb:    <http://purl.org/linked-data/cube#> .
@prefix mms:   <http://rdf.cdisc.org/mms#> .
@prefix crnd-dimension: <http://www.example.org/dc/dimension#> .
@prefix dct:   <http://purl.org/dc/terms/> .
@prefix rdf:   <http://www.w3.org/1999/02/22-rdf-syntax-ns#> .
@prefix rrdfqbcrnd0: <http://www.example.org/rrdfqbcrnd0/> .
@prefix dcat:  <http://www.w3.org/ns/dcat#> .
@prefix prov:  <http://www.w3.org/ns/prov#> .

ds:obs1339  a                       qb:Observation ;
        rdfs:comment                "Statistic for number of records/Statistics for factor with the dimensions XX"@en ;
        rdfs:label                  "1339"^^xsd:string ;
        qb:dataSet                  ds:dataset-AE ;
        crnd-attribute:cellpartno   "1"^^xsd:string ;
        crnd-attribute:colno        "4"^^xsd:string ;
        crnd-attribute:denominator  "_NULL_" ;
        crnd-attribute:rowno        "233"^^xsd:string ;
        crnd-attribute:unit         "_NULL_"^^xsd:string ;
        crnd-dimension:aedecod      code:aedecod-ACTINIC_KERATOSIS ;
        crnd-dimension:aesoc        code:aesoc-SKIN_AND_SUBCUTANEOUS_TISSUE_DISORDERS ;
        crnd-dimension:factor       code:factor-quantity ;
        crnd-dimension:procedure    code:procedure-count ;
        crnd-dimension:saffl        code:saffl-Y ;
        crnd-dimension:trta         code:trta-_ALL_ ;
        crnd-measure:measure        "1"^^xsd:double .

ds:obs0777  a                       qb:Observation ;
        rdfs:comment                "Statistic for number of records/Statistics for factor with the dimensions XX"@en ;
        rdfs:label                  "777"^^xsd:string ;
        qb:dataSet                  ds:dataset-AE ;
        crnd-attribute:cellpartno   "1"^^xsd:string ;
        crnd-attribute:colno        "3"^^xsd:string ;
        crnd-attribute:denominator  "_NULL_" ;
        crnd-attribute:rowno        "171"^^xsd:string ;
        crnd-attribute:unit         "_NULL_"^^xsd:string ;
        crnd-dimension:aedecod      code:aedecod-COORDINATION_ABNORMAL ;
        crnd-dimension:aesoc        code:aesoc-NERVOUS_SYSTEM_DISORDERS ;
        crnd-dimension:factor       code:factor-quantity ;
        crnd-dimension:procedure    code:procedure-count ;
        crnd-dimension:saffl        code:saffl-Y ;
        crnd-dimension:trta         code:trta-Xanomeline_Low_Dose ;
        crnd-measure:measure        "1"^^xsd:double .

ds:obs0524  a                       qb:Observation ;
        rdfs:comment                "Statistic for number of records/Statistics for factor with the dimensions XX"@en ;
        rdfs:label                  "524"^^xsd:string ;
        qb:dataSet                  ds:dataset-AE ;
        crnd-attribute:cellpartno   "2"^^xsd:string ;
        crnd-attribute:colno        "2"^^xsd:string ;
        crnd-attribute:denominator  "_NULL_" ;
        crnd-attribute:rowno        "218"^^xsd:string ;
        crnd-attribute:unit         "_NULL_"^^xsd:string ;
        crnd-dimension:aedecod      code:aedecod-COUGH ;
        crnd-dimension:aesoc        code:aesoc-RESPIRATORY__THORACIC_AND_MEDIASTINAL_DISORDERS ;
        crnd-dimension:factor       code:factor-USUBJID ;
        crnd-dimension:procedure    code:procedure-countdistinct ;
        crnd-dimension:saffl        code:saffl-Y ;
        crnd-dimension:trta         code:trta-Xanomeline_High_Dose ;
        crnd-measure:measure        "5"^^xsd:double .

code:aedecod-FEELING_COLD
        a                             code:Aedecod , skos:Concept ;
        rdfs:comment                  "Coded values from data source. No reconciliation against another source"@en ;
        rrdfqbcrnd0:R-selectionoperator
                "=="^^xsd:string ;
        rrdfqbcrnd0:R-selectionvalue  "FEELING COLD"^^xsd:string ;
        skos:inScheme                 code:aedecod ;
        skos:prefLabel                "FEELING COLD"^^xsd:string ;
        skos:topConceptOf             code:aedecod .

code:aedecod-FATIGUE  a               code:Aedecod , skos:Concept ;
        rdfs:comment                  "Coded values from data source. No reconciliation against another source"@en ;
        rrdfqbcrnd0:R-selectionoperator
                "=="^^xsd:string ;
        rrdfqbcrnd0:R-selectionvalue  "FATIGUE"^^xsd:string ;
        skos:inScheme                 code:aedecod ;
        skos:prefLabel                "FATIGUE"^^xsd:string ;
        skos:topConceptOf             code:aedecod .

ds:obs1174  a                       qb:Observation ;
        rdfs:comment                "Statistic for number of records/Statistics for factor with the dimensions XX"@en ;
        rdfs:label                  "1174"^^xsd:string ;
        qb:dataSet                  ds:dataset-AE ;
        crnd-attribute:cellpartno   "2"^^xsd:string ;
        crnd-attribute:colno        "4"^^xsd:string ;
        crnd-attribute:denominator  "_NULL_" ;
        crnd-attribute:rowno        "150"^^xsd:string ;
        crnd-attribute:unit         "_NULL_"^^xsd:string ;
        crnd-dimension:aedecod      code:aedecod-INCREASED_APPETITE ;
        crnd-dimension:aesoc        code:aesoc-METABOLISM_AND_NUTRITION_DISORDERS ;
        crnd-dimension:factor       code:factor-USUBJID ;
        crnd-dimension:procedure    code:procedure-countdistinct ;
        crnd-dimension:saffl        code:saffl-Y ;
        crnd-dimension:trta         code:trta-_ALL_ ;
        crnd-measure:measure        "2"^^xsd:double .

ds:obs0065  a                       qb:Observation ;
        rdfs:comment                "Statistic for number of records/Statistics for factor with the dimensions XX"@en ;
        rdfs:label                  "65"^^xsd:string ;
        qb:dataSet                  ds:dataset-AE ;
        crnd-attribute:cellpartno   "1"^^xsd:string ;
        crnd-attribute:colno        "1"^^xsd:string ;
        crnd-attribute:denominator  "_NULL_" ;
        crnd-attribute:rowno        "49"^^xsd:string ;
        crnd-attribute:unit         "_NULL_"^^xsd:string ;
        crnd-dimension:aedecod      code:aedecod-HIATUS_HERNIA ;
        crnd-dimension:aesoc        code:aesoc-GASTROINTESTINAL_DISORDERS ;
        crnd-dimension:factor       code:factor-quantity ;
        crnd-dimension:procedure    code:procedure-count ;
        crnd-dimension:saffl        code:saffl-Y ;
        crnd-dimension:trta         code:trta-Placebo ;
        crnd-measure:measure        "2"^^xsd:double .

code:aedecod-COLON_CANCER
        a                             code:Aedecod , skos:Concept ;
        rdfs:comment                  "Coded values from data source. No reconciliation against another source"@en ;
        rrdfqbcrnd0:R-selectionoperator
                "=="^^xsd:string ;
        rrdfqbcrnd0:R-selectionvalue  "COLON CANCER"^^xsd:string ;
        skos:inScheme                 code:aedecod ;
        skos:prefLabel                "COLON CANCER"^^xsd:string ;
        skos:topConceptOf             code:aedecod .

crnd-attribute:denominator
        a           rdf:Property , qb:AttributeProperty ;
        rdfs:label  "Denominator for a proportion (oskr) subset on which a statistic is based" .

ds:obs0537  a                       qb:Observation ;
        rdfs:comment                "Statistic for number of records/Statistics for factor with the dimensions XX"@en ;
        rdfs:label                  "537"^^xsd:string ;
        qb:dataSet                  ds:dataset-AE ;
        crnd-attribute:cellpartno   "1"^^xsd:string ;
        crnd-attribute:colno        "2"^^xsd:string ;
        crnd-attribute:denominator  "_NULL_" ;
        crnd-attribute:rowno        "230"^^xsd:string ;
        crnd-attribute:unit         "_NULL_"^^xsd:string ;
        crnd-dimension:aedecod      code:aedecod-RESPIRATORY_TRACT_CONGESTION ;
        crnd-dimension:aesoc        code:aesoc-RESPIRATORY__THORACIC_AND_MEDIASTINAL_DISORDERS ;
        crnd-dimension:factor       code:factor-quantity ;
        crnd-dimension:procedure    code:procedure-count ;
        crnd-dimension:saffl        code:saffl-Y ;
        crnd-dimension:trta         code:trta-Xanomeline_High_Dose ;
        crnd-measure:measure        "1"^^xsd:double .

ds:obs0831  a                       qb:Observation ;
        rdfs:comment                "Statistic for number of records/Statistics for factor with the dimensions XX"@en ;
        rdfs:label                  "831"^^xsd:string ;
        qb:dataSet                  ds:dataset-AE ;
        crnd-attribute:cellpartno   "1"^^xsd:string ;
        crnd-attribute:colno        "3"^^xsd:string ;
        crnd-attribute:denominator  "_NULL_" ;
        crnd-attribute:rowno        "224"^^xsd:string ;
        crnd-attribute:unit         "_NULL_"^^xsd:string ;
        crnd-dimension:aedecod      code:aedecod-NASAL_CONGESTION ;
        crnd-dimension:aesoc        code:aesoc-RESPIRATORY__THORACIC_AND_MEDIASTINAL_DISORDERS ;
        crnd-dimension:factor       code:factor-quantity ;
        crnd-dimension:procedure    code:procedure-count ;
        crnd-dimension:saffl        code:saffl-Y ;
        crnd-dimension:trta         code:trta-Xanomeline_Low_Dose ;
        crnd-measure:measure        "1"^^xsd:double .

ds:obs1187  a                       qb:Observation ;
        rdfs:comment                "Statistic for number of records/Statistics for factor with the dimensions XX"@en ;
        rdfs:label                  "1187"^^xsd:string ;
        qb:dataSet                  ds:dataset-AE ;
        crnd-attribute:cellpartno   "1"^^xsd:string ;
        crnd-attribute:colno        "4"^^xsd:string ;
        crnd-attribute:denominator  "_NULL_" ;
        crnd-attribute:rowno        "157"^^xsd:string ;
        crnd-attribute:unit         "_NULL_"^^xsd:string ;
        crnd-dimension:aedecod      code:aedecod-MUSCULAR_WEAKNESS ;
        crnd-dimension:aesoc        code:aesoc-MUSCULOSKELETAL_AND_CONNECTIVE_TISSUE_DISORDERS ;
        crnd-dimension:factor       code:factor-quantity ;
        crnd-dimension:procedure    code:procedure-count ;
        crnd-dimension:saffl        code:saffl-Y ;
        crnd-dimension:trta         code:trta-_ALL_ ;
        crnd-measure:measure        "2"^^xsd:double .

ds:obs0078  a                       qb:Observation ;
        rdfs:comment                "Statistic for number of records/Statistics for factor with the dimensions XX"@en ;
        rdfs:label                  "78"^^xsd:string ;
        qb:dataSet                  ds:dataset-AE ;
        crnd-attribute:cellpartno   "2"^^xsd:string ;
        crnd-attribute:colno        "1"^^xsd:string ;
        crnd-attribute:denominator  "_NULL_" ;
        crnd-attribute:rowno        "62"^^xsd:string ;
        crnd-attribute:unit         "_NULL_"^^xsd:string ;
        crnd-dimension:aedecod      code:aedecod-APPLICATION_SITE_INDURATION ;
        crnd-dimension:aesoc        code:aesoc-GENERAL_DISORDERS_AND_ADMINISTRATION_SITE_CONDITIONS ;
        crnd-dimension:factor       code:factor-USUBJID ;
        crnd-dimension:procedure    code:procedure-countdistinct ;
        crnd-dimension:saffl        code:saffl-Y ;
        crnd-dimension:trta         code:trta-Placebo ;
        crnd-measure:measure        "1"^^xsd:double .

ds:obs0372  a                       qb:Observation ;
        rdfs:comment                "Statistic for number of records/Statistics for factor with the dimensions XX"@en ;
        rdfs:label                  "372"^^xsd:string ;
        qb:dataSet                  ds:dataset-AE ;
        crnd-attribute:cellpartno   "2"^^xsd:string ;
        crnd-attribute:colno        "2"^^xsd:string ;
        crnd-attribute:denominator  "_NULL_" ;
        crnd-attribute:rowno        "81"^^xsd:string ;
        crnd-attribute:unit         "_NULL_"^^xsd:string ;
        crnd-dimension:aedecod      code:aedecod-MALAISE ;
        crnd-dimension:aesoc        code:aesoc-GENERAL_DISORDERS_AND_ADMINISTRATION_SITE_CONDITIONS ;
        crnd-dimension:factor       code:factor-USUBJID ;
        crnd-dimension:procedure    code:procedure-countdistinct ;
        crnd-dimension:saffl        code:saffl-Y ;
        crnd-dimension:trta         code:trta-Xanomeline_High_Dose ;
        crnd-measure:measure        "2"^^xsd:double .

ds:obs1406  a                       qb:Observation ;
        rdfs:comment                "Statistic for number of records/Statistics for factor with the dimensions XX"@en ;
        rdfs:label                  "1406"^^xsd:string ;
        qb:dataSet                  ds:dataset-AE ;
        crnd-attribute:cellpartno   "2"^^xsd:string ;
        crnd-attribute:colno        "4"^^xsd:string ;
        crnd-attribute:denominator  "_NULL_" ;
        crnd-attribute:rowno        "266"^^xsd:string ;
        crnd-attribute:unit         "_NULL_"^^xsd:string ;
        crnd-dimension:aedecod      code:aedecod-WOUND_HAEMORRHAGE ;
        crnd-dimension:aesoc        code:aesoc-VASCULAR_DISORDERS ;
        crnd-dimension:factor       code:factor-USUBJID ;
        crnd-dimension:procedure    code:procedure-countdistinct ;
        crnd-dimension:saffl        code:saffl-Y ;
        crnd-dimension:trta         code:trta-_ALL_ ;
        crnd-measure:measure        "1"^^xsd:double .

ds:obs0844  a                       qb:Observation ;
        rdfs:comment                "Statistic for number of records/Statistics for factor with the dimensions XX"@en ;
        rdfs:label                  "844"^^xsd:string ;
        qb:dataSet                  ds:dataset-AE ;
        crnd-attribute:cellpartno   "2"^^xsd:string ;
        crnd-attribute:colno        "3"^^xsd:string ;
        crnd-attribute:denominator  "_NULL_" ;
        crnd-attribute:rowno        "240"^^xsd:string ;
        crnd-attribute:unit         "_NULL_"^^xsd:string ;
        crnd-dimension:aedecod      code:aedecod-ERYTHEMA ;
        crnd-dimension:aesoc        code:aesoc-SKIN_AND_SUBCUTANEOUS_TISSUE_DISORDERS ;
        crnd-dimension:factor       code:factor-USUBJID ;
        crnd-dimension:procedure    code:procedure-countdistinct ;
        crnd-dimension:saffl        code:saffl-Y ;
        crnd-dimension:trta         code:trta-Xanomeline_Low_Dose ;
        crnd-measure:measure        "15"^^xsd:double .

code:aedecod-APPLICATION_SITE_PAIN
        a                             code:Aedecod , skos:Concept ;
        rdfs:comment                  "Coded values from data source. No reconciliation against another source"@en ;
        rrdfqbcrnd0:R-selectionoperator
                "=="^^xsd:string ;
        rrdfqbcrnd0:R-selectionvalue  "APPLICATION SITE PAIN"^^xsd:string ;
        skos:inScheme                 code:aedecod ;
        skos:prefLabel                "APPLICATION SITE PAIN"^^xsd:string ;
        skos:topConceptOf             code:aedecod .

code:aesoc-GENERAL_DISORDERS_AND_ADMINISTRATION_SITE_CONDITIONS
        a                             code:Aesoc , skos:Concept ;
        rdfs:comment                  "Coded values from data source. No reconciliation against another source"@en ;
        rrdfqbcrnd0:R-selectionoperator
                "=="^^xsd:string ;
        rrdfqbcrnd0:R-selectionvalue  "GENERAL DISORDERS AND ADMINISTRATION SITE CONDITIONS"^^xsd:string ;
        skos:inScheme                 code:aesoc ;
        skos:prefLabel                "GENERAL DISORDERS AND ADMINISTRATION SITE CONDITIONS"^^xsd:string ;
        skos:topConceptOf             code:aesoc .

ds:obs0385  a                       qb:Observation ;
        rdfs:comment                "Statistic for number of records/Statistics for factor with the dimensions XX"@en ;
        rdfs:label                  "385"^^xsd:string ;
        qb:dataSet                  ds:dataset-AE ;
        crnd-attribute:cellpartno   "1"^^xsd:string ;
        crnd-attribute:colno        "2"^^xsd:string ;
        crnd-attribute:denominator  "_NULL_" ;
        crnd-attribute:rowno        "99"^^xsd:string ;
        crnd-attribute:unit         "_NULL_"^^xsd:string ;
        crnd-dimension:aedecod      code:aedecod-CYSTITIS ;
        crnd-dimension:aesoc        code:aesoc-INFECTIONS_AND_INFESTATIONS ;
        crnd-dimension:factor       code:factor-quantity ;
        crnd-dimension:procedure    code:procedure-count ;
        crnd-dimension:saffl        code:saffl-Y ;
        crnd-dimension:trta         code:trta-Xanomeline_High_Dose ;
        crnd-measure:measure        "1"^^xsd:double .

ds:obs1241  a                       qb:Observation ;
        rdfs:comment                "Statistic for number of records/Statistics for factor with the dimensions XX"@en ;
        rdfs:label                  "1241"^^xsd:string ;
        qb:dataSet                  ds:dataset-AE ;
        crnd-attribute:cellpartno   "1"^^xsd:string ;
        crnd-attribute:colno        "4"^^xsd:string ;
        crnd-attribute:denominator  "_NULL_" ;
        crnd-attribute:rowno        "184"^^xsd:string ;
        crnd-attribute:unit         "_NULL_"^^xsd:string ;
        crnd-dimension:aedecod      code:aedecod-STUPOR ;
        crnd-dimension:aesoc        code:aesoc-NERVOUS_SYSTEM_DISORDERS ;
        crnd-dimension:factor       code:factor-quantity ;
        crnd-dimension:procedure    code:procedure-count ;
        crnd-dimension:saffl        code:saffl-Y ;
        crnd-dimension:trta         code:trta-_ALL_ ;
        crnd-measure:measure        "1"^^xsd:double .

ds:obs0132  a                       qb:Observation ;
        rdfs:comment                "Statistic for number of records/Statistics for factor with the dimensions XX"@en ;
        rdfs:label                  "132"^^xsd:string ;
        qb:dataSet                  ds:dataset-AE ;
        crnd-attribute:cellpartno   "2"^^xsd:string ;
        crnd-attribute:colno        "1"^^xsd:string ;
        crnd-attribute:denominator  "_NULL_" ;
        crnd-attribute:rowno        "118"^^xsd:string ;
        crnd-attribute:unit         "_NULL_"^^xsd:string ;
        crnd-dimension:aedecod      code:aedecod-FALL ;
        crnd-dimension:aesoc        code:aesoc-INJURY__POISONING_AND_PROCEDURAL_COMPLICATIONS ;
        crnd-dimension:factor       code:factor-USUBJID ;
        crnd-dimension:procedure    code:procedure-countdistinct ;
        crnd-dimension:saffl        code:saffl-Y ;
        crnd-dimension:trta         code:trta-Placebo ;
        crnd-measure:measure        "1"^^xsd:double .

ds:obs0857  a                       qb:Observation ;
        rdfs:comment                "Statistic for number of records/Statistics for factor with the dimensions XX"@en ;
        rdfs:label                  "857"^^xsd:string ;
        qb:dataSet                  ds:dataset-AE ;
        crnd-attribute:cellpartno   "1"^^xsd:string ;
        crnd-attribute:colno        "3"^^xsd:string ;
        crnd-attribute:denominator  "_NULL_" ;
        crnd-attribute:rowno        "249"^^xsd:string ;
        crnd-attribute:unit         "_NULL_"^^xsd:string ;
        crnd-dimension:aedecod      code:aedecod-SKIN_EXFOLIATION ;
        crnd-dimension:aesoc        code:aesoc-SKIN_AND_SUBCUTANEOUS_TISSUE_DISORDERS ;
        crnd-dimension:factor       code:factor-quantity ;
        crnd-dimension:procedure    code:procedure-count ;
        crnd-dimension:saffl        code:saffl-Y ;
        crnd-dimension:trta         code:trta-Xanomeline_Low_Dose ;
        crnd-measure:measure        "2"^^xsd:double .

ds:obs0604  a                       qb:Observation ;
        rdfs:comment                "Statistic for number of records/Statistics for factor with the dimensions XX"@en ;
        rdfs:label                  "604"^^xsd:string ;
        qb:dataSet                  ds:dataset-AE ;
        crnd-attribute:cellpartno   "2"^^xsd:string ;
        crnd-attribute:colno        "3"^^xsd:string ;
        crnd-attribute:denominator  "_NULL_" ;
        crnd-attribute:rowno        "17"^^xsd:string ;
        crnd-attribute:unit         "_NULL_"^^xsd:string ;
        crnd-dimension:aedecod      code:aedecod-SUPRAVENTRICULAR_EXTRASYSTOLES ;
        crnd-dimension:aesoc        code:aesoc-CARDIAC_DISORDERS ;
        crnd-dimension:factor       code:factor-USUBJID ;
        crnd-dimension:procedure    code:procedure-countdistinct ;
        crnd-dimension:saffl        code:saffl-Y ;
        crnd-dimension:trta         code:trta-Xanomeline_Low_Dose ;
        crnd-measure:measure        "1"^^xsd:double .

code:aedecod-SINUS_ARRHYTHMIA
        a                             code:Aedecod , skos:Concept ;
        rdfs:comment                  "Coded values from data source. No reconciliation against another source"@en ;
        rrdfqbcrnd0:R-selectionoperator
                "=="^^xsd:string ;
        rrdfqbcrnd0:R-selectionvalue  "SINUS ARRHYTHMIA"^^xsd:string ;
        skos:inScheme                 code:aedecod ;
        skos:prefLabel                "SINUS ARRHYTHMIA"^^xsd:string ;
        skos:topConceptOf             code:aedecod .

ds:obs0398  a                       qb:Observation ;
        rdfs:comment                "Statistic for number of records/Statistics for factor with the dimensions XX"@en ;
        rdfs:label                  "398"^^xsd:string ;
        qb:dataSet                  ds:dataset-AE ;
        crnd-attribute:cellpartno   "2"^^xsd:string ;
        crnd-attribute:colno        "2"^^xsd:string ;
        crnd-attribute:denominator  "_NULL_" ;
        crnd-attribute:rowno        "110"^^xsd:string ;
        crnd-attribute:unit         "_NULL_"^^xsd:string ;
        crnd-dimension:aedecod      code:aedecod-UPPER_RESPIRATORY_TRACT_INFECTION ;
        crnd-dimension:aesoc        code:aesoc-INFECTIONS_AND_INFESTATIONS ;
        crnd-dimension:factor       code:factor-USUBJID ;
        crnd-dimension:procedure    code:procedure-countdistinct ;
        crnd-dimension:saffl        code:saffl-Y ;
        crnd-dimension:trta         code:trta-Xanomeline_High_Dose ;
        crnd-measure:measure        "3"^^xsd:double .

ds:obs1254  a                       qb:Observation ;
        rdfs:comment                "Statistic for number of records/Statistics for factor with the dimensions XX"@en ;
        rdfs:label                  "1254"^^xsd:string ;
        qb:dataSet                  ds:dataset-AE ;
        crnd-attribute:cellpartno   "2"^^xsd:string ;
        crnd-attribute:colno        "4"^^xsd:string ;
        crnd-attribute:denominator  "_NULL_" ;
        crnd-attribute:rowno        "190"^^xsd:string ;
        crnd-attribute:unit         "_NULL_"^^xsd:string ;
        crnd-dimension:aedecod      code:aedecod-ANXIETY ;
        crnd-dimension:aesoc        code:aesoc-PSYCHIATRIC_DISORDERS ;
        crnd-dimension:factor       code:factor-USUBJID ;
        crnd-dimension:procedure    code:procedure-countdistinct ;
        crnd-dimension:saffl        code:saffl-Y ;
        crnd-dimension:trta         code:trta-_ALL_ ;
        crnd-measure:measure        "4"^^xsd:double .

ds:obs0145  a                       qb:Observation ;
        rdfs:comment                "Statistic for number of records/Statistics for factor with the dimensions XX"@en ;
        rdfs:label                  "145"^^xsd:string ;
        qb:dataSet                  ds:dataset-AE ;
        crnd-attribute:cellpartno   "1"^^xsd:string ;
        crnd-attribute:colno        "1"^^xsd:string ;
        crnd-attribute:denominator  "_NULL_" ;
        crnd-attribute:rowno        "132"^^xsd:string ;
        crnd-attribute:unit         "_NULL_"^^xsd:string ;
        crnd-dimension:aedecod      code:aedecod-CYSTOSCOPY ;
        crnd-dimension:aesoc        code:aesoc-INVESTIGATIONS ;
        crnd-dimension:factor       code:factor-quantity ;
        crnd-dimension:procedure    code:procedure-count ;
        crnd-dimension:saffl        code:saffl-Y ;
        crnd-dimension:trta         code:trta-Placebo ;
        crnd-measure:measure        "1"^^xsd:double .

ds:obs0692  a                       qb:Observation ;
        rdfs:comment                "Statistic for number of records/Statistics for factor with the dimensions XX"@en ;
        rdfs:label                  "692"^^xsd:string ;
        qb:dataSet                  ds:dataset-AE ;
        crnd-attribute:cellpartno   "2"^^xsd:string ;
        crnd-attribute:colno        "3"^^xsd:string ;
        crnd-attribute:denominator  "_NULL_" ;
        crnd-attribute:rowno        "89"^^xsd:string ;
        crnd-attribute:unit         "_NULL_"^^xsd:string ;
        crnd-dimension:aedecod      code:aedecod-ULCER ;
        crnd-dimension:aesoc        code:aesoc-GENERAL_DISORDERS_AND_ADMINISTRATION_SITE_CONDITIONS ;
        crnd-dimension:factor       code:factor-USUBJID ;
        crnd-dimension:procedure    code:procedure-countdistinct ;
        crnd-dimension:saffl        code:saffl-Y ;
        crnd-dimension:trta         code:trta-Xanomeline_Low_Dose ;
        crnd-measure:measure        "1"^^xsd:double .

ds:obs1001  a                       qb:Observation ;
        rdfs:comment                "Statistic for number of records/Statistics for factor with the dimensions XX"@en ;
        rdfs:label                  "1001"^^xsd:string ;
        qb:dataSet                  ds:dataset-AE ;
        crnd-attribute:cellpartno   "1"^^xsd:string ;
        crnd-attribute:colno        "4"^^xsd:string ;
        crnd-attribute:denominator  "_NULL_" ;
        crnd-attribute:rowno        "64"^^xsd:string ;
        crnd-attribute:unit         "_NULL_"^^xsd:string ;
        crnd-dimension:aedecod      code:aedecod-APPLICATION_SITE_PAIN ;
        crnd-dimension:aesoc        code:aesoc-GENERAL_DISORDERS_AND_ADMINISTRATION_SITE_CONDITIONS ;
        crnd-dimension:factor       code:factor-quantity ;
        crnd-dimension:procedure    code:procedure-count ;
        crnd-dimension:saffl        code:saffl-Y ;
        crnd-dimension:trta         code:trta-_ALL_ ;
        crnd-measure:measure        "2"^^xsd:double .

ds:obs0617  a                       qb:Observation ;
        rdfs:comment                "Statistic for number of records/Statistics for factor with the dimensions XX"@en ;
        rdfs:label                  "617"^^xsd:string ;
        qb:dataSet                  ds:dataset-AE ;
        crnd-attribute:cellpartno   "1"^^xsd:string ;
        crnd-attribute:colno        "3"^^xsd:string ;
        crnd-attribute:denominator  "_NULL_" ;
        crnd-attribute:rowno        "26"^^xsd:string ;
        crnd-attribute:unit         "_NULL_"^^xsd:string ;
        crnd-dimension:aedecod      code:aedecod-CERUMEN_IMPACTION ;
        crnd-dimension:aesoc        code:aesoc-EAR_AND_LABYRINTH_DISORDERS ;
        crnd-dimension:factor       code:factor-quantity ;
        crnd-dimension:procedure    code:procedure-count ;
        crnd-dimension:saffl        code:saffl-Y ;
        crnd-dimension:trta         code:trta-Xanomeline_Low_Dose ;
        crnd-measure:measure        "1"^^xsd:double .

code:aedecod-FLANK_PAIN
        a                             code:Aedecod , skos:Concept ;
        rdfs:comment                  "Coded values from data source. No reconciliation against another source"@en ;
        rrdfqbcrnd0:R-selectionoperator
                "=="^^xsd:string ;
        rrdfqbcrnd0:R-selectionvalue  "FLANK PAIN"^^xsd:string ;
        skos:inScheme                 code:aedecod ;
        skos:prefLabel                "FLANK PAIN"^^xsd:string ;
        skos:topConceptOf             code:aedecod .

ds:obs0911  a                       qb:Observation ;
        rdfs:comment                "Statistic for number of records/Statistics for factor with the dimensions XX"@en ;
        rdfs:label                  "911"^^xsd:string ;
        qb:dataSet                  ds:dataset-AE ;
        crnd-attribute:cellpartno   "1"^^xsd:string ;
        crnd-attribute:colno        "4"^^xsd:string ;
        crnd-attribute:denominator  "_NULL_" ;
        crnd-attribute:rowno        "19"^^xsd:string ;
        crnd-attribute:unit         "_NULL_"^^xsd:string ;
        crnd-dimension:aedecod      code:aedecod-TACHYCARDIA ;
        crnd-dimension:aesoc        code:aesoc-CARDIAC_DISORDERS ;
        crnd-dimension:factor       code:factor-quantity ;
        crnd-dimension:procedure    code:procedure-count ;
        crnd-dimension:saffl        code:saffl-Y ;
        crnd-dimension:trta         code:trta-_ALL_ ;
        crnd-measure:measure        "2"^^xsd:double .

ds:obs1267  a                       qb:Observation ;
        rdfs:comment                "Statistic for number of records/Statistics for factor with the dimensions XX"@en ;
        rdfs:label                  "1267"^^xsd:string ;
        qb:dataSet                  ds:dataset-AE ;
        crnd-attribute:cellpartno   "1"^^xsd:string ;
        crnd-attribute:colno        "4"^^xsd:string ;
        crnd-attribute:denominator  "_NULL_" ;
        crnd-attribute:rowno        "197"^^xsd:string ;
        crnd-attribute:unit         "_NULL_"^^xsd:string ;
        crnd-dimension:aedecod      code:aedecod-HALLUCINATION ;
        crnd-dimension:aesoc        code:aesoc-PSYCHIATRIC_DISORDERS ;
        crnd-dimension:factor       code:factor-quantity ;
        crnd-dimension:procedure    code:procedure-count ;
        crnd-dimension:saffl        code:saffl-Y ;
        crnd-dimension:trta         code:trta-_ALL_ ;
        crnd-measure:measure        "1"^^xsd:double .

ds:obs0158  a                       qb:Observation ;
        rdfs:comment                "Statistic for number of records/Statistics for factor with the dimensions XX"@en ;
        rdfs:label                  "158"^^xsd:string ;
        qb:dataSet                  ds:dataset-AE ;
        crnd-attribute:cellpartno   "2"^^xsd:string ;
        crnd-attribute:colno        "1"^^xsd:string ;
        crnd-attribute:denominator  "_NULL_" ;
        crnd-attribute:rowno        "143"^^xsd:string ;
        crnd-attribute:unit         "_NULL_"^^xsd:string ;
        crnd-dimension:aedecod      code:aedecod-_ALL_ ;
        crnd-dimension:aesoc        code:aesoc-METABOLISM_AND_NUTRITION_DISORDERS ;
        crnd-dimension:factor       code:factor-USUBJID ;
        crnd-dimension:procedure    code:procedure-countdistinct ;
        crnd-dimension:saffl        code:saffl-Y ;
        crnd-dimension:trta         code:trta-Placebo ;
        crnd-measure:measure        "6"^^xsd:double .

ds:obs1014  a                       qb:Observation ;
        rdfs:comment                "Statistic for number of records/Statistics for factor with the dimensions XX"@en ;
        rdfs:label                  "1014"^^xsd:string ;
        qb:dataSet                  ds:dataset-AE ;
        crnd-attribute:cellpartno   "2"^^xsd:string ;
        crnd-attribute:colno        "4"^^xsd:string ;
        crnd-attribute:denominator  "_NULL_" ;
        crnd-attribute:rowno        "70"^^xsd:string ;
        crnd-attribute:unit         "_NULL_"^^xsd:string ;
        crnd-dimension:aedecod      code:aedecod-APPLICATION_SITE_VESICLES ;
        crnd-dimension:aesoc        code:aesoc-GENERAL_DISORDERS_AND_ADMINISTRATION_SITE_CONDITIONS ;
        crnd-dimension:factor       code:factor-USUBJID ;
        crnd-dimension:procedure    code:procedure-countdistinct ;
        crnd-dimension:saffl        code:saffl-Y ;
        crnd-dimension:trta         code:trta-_ALL_ ;
        crnd-measure:measure        "11"^^xsd:double .

ds:obs0452  a                       qb:Observation ;
        rdfs:comment                "Statistic for number of records/Statistics for factor with the dimensions XX"@en ;
        rdfs:label                  "452"^^xsd:string ;
        qb:dataSet                  ds:dataset-AE ;
        crnd-attribute:cellpartno   "2"^^xsd:string ;
        crnd-attribute:colno        "2"^^xsd:string ;
        crnd-attribute:denominator  "_NULL_" ;
        crnd-attribute:rowno        "164"^^xsd:string ;
        crnd-attribute:unit         "_NULL_"^^xsd:string ;
        crnd-dimension:aedecod      code:aedecod-PROSTATE_CANCER ;
        crnd-dimension:aesoc        code:aesoc-NEOPLASMS_BENIGN__MALIGNANT_AND_UNSPECIFIED__INCL_CYSTS_AND_POLYPS_ ;
        crnd-dimension:factor       code:factor-USUBJID ;
        crnd-dimension:procedure    code:procedure-countdistinct ;
        crnd-dimension:saffl        code:saffl-Y ;
        crnd-dimension:trta         code:trta-Xanomeline_High_Dose ;
        crnd-measure:measure        "1"^^xsd:double .

code:aedecod-PSYCHOMOTOR_HYPERACTIVITY
        a                             code:Aedecod , skos:Concept ;
        rdfs:comment                  "Coded values from data source. No reconciliation against another source"@en ;
        rrdfqbcrnd0:R-selectionoperator
                "=="^^xsd:string ;
        rrdfqbcrnd0:R-selectionvalue  "PSYCHOMOTOR HYPERACTIVITY"^^xsd:string ;
        skos:inScheme                 code:aedecod ;
        skos:prefLabel                "PSYCHOMOTOR HYPERACTIVITY"^^xsd:string ;
        skos:topConceptOf             code:aedecod .

code:aedecod-BLISTER  a               code:Aedecod , skos:Concept ;
        rdfs:comment                  "Coded values from data source. No reconciliation against another source"@en ;
        rrdfqbcrnd0:R-selectionoperator
                "=="^^xsd:string ;
        rrdfqbcrnd0:R-selectionvalue  "BLISTER"^^xsd:string ;
        skos:inScheme                 code:aedecod ;
        skos:prefLabel                "BLISTER"^^xsd:string ;
        skos:topConceptOf             code:aedecod .

ds:obs0924  a                       qb:Observation ;
        rdfs:comment                "Statistic for number of records/Statistics for factor with the dimensions XX"@en ;
        rdfs:label                  "924"^^xsd:string ;
        qb:dataSet                  ds:dataset-AE ;
        crnd-attribute:cellpartno   "2"^^xsd:string ;
        crnd-attribute:colno        "4"^^xsd:string ;
        crnd-attribute:denominator  "_NULL_" ;
        crnd-attribute:rowno        "25"^^xsd:string ;
        crnd-attribute:unit         "_NULL_"^^xsd:string ;
        crnd-dimension:aedecod      code:aedecod-_ALL_ ;
        crnd-dimension:aesoc        code:aesoc-EAR_AND_LABYRINTH_DISORDERS ;
        crnd-dimension:factor       code:factor-USUBJID ;
        crnd-dimension:procedure    code:procedure-countdistinct ;
        crnd-dimension:saffl        code:saffl-Y ;
        crnd-dimension:trta         code:trta-_ALL_ ;
        crnd-measure:measure        "4"^^xsd:double .

ds:obs1027  a                       qb:Observation ;
        rdfs:comment                "Statistic for number of records/Statistics for factor with the dimensions XX"@en ;
        rdfs:label                  "1027"^^xsd:string ;
        qb:dataSet                  ds:dataset-AE ;
        crnd-attribute:cellpartno   "1"^^xsd:string ;
        crnd-attribute:colno        "4"^^xsd:string ;
        crnd-attribute:denominator  "_NULL_" ;
        crnd-attribute:rowno        "77"^^xsd:string ;
        crnd-attribute:unit         "_NULL_"^^xsd:string ;
        crnd-dimension:aedecod      code:aedecod-FATIGUE ;
        crnd-dimension:aesoc        code:aesoc-GENERAL_DISORDERS_AND_ADMINISTRATION_SITE_CONDITIONS ;
        crnd-dimension:factor       code:factor-quantity ;
        crnd-dimension:procedure    code:procedure-count ;
        crnd-dimension:saffl        code:saffl-Y ;
        crnd-dimension:trta         code:trta-_ALL_ ;
        crnd-measure:measure        "12"^^xsd:double .

ds:obs0465  a                       qb:Observation ;
        rdfs:comment                "Statistic for number of records/Statistics for factor with the dimensions XX"@en ;
        rdfs:label                  "465"^^xsd:string ;
        qb:dataSet                  ds:dataset-AE ;
        crnd-attribute:cellpartno   "1"^^xsd:string ;
        crnd-attribute:colno        "2"^^xsd:string ;
        crnd-attribute:denominator  "_NULL_" ;
        crnd-attribute:rowno        "175"^^xsd:string ;
        crnd-attribute:unit         "_NULL_"^^xsd:string ;
        crnd-dimension:aedecod      code:aedecod-HYPERSOMNIA ;
        crnd-dimension:aesoc        code:aesoc-NERVOUS_SYSTEM_DISORDERS ;
        crnd-dimension:factor       code:factor-quantity ;
        crnd-dimension:procedure    code:procedure-count ;
        crnd-dimension:saffl        code:saffl-Y ;
        crnd-dimension:trta         code:trta-Xanomeline_High_Dose ;
        crnd-measure:measure        "1"^^xsd:double .

ds:obs1321  a                       qb:Observation ;
        rdfs:comment                "Statistic for number of records/Statistics for factor with the dimensions XX"@en ;
        rdfs:label                  "1321"^^xsd:string ;
        qb:dataSet                  ds:dataset-AE ;
        crnd-attribute:cellpartno   "1"^^xsd:string ;
        crnd-attribute:colno        "4"^^xsd:string ;
        crnd-attribute:denominator  "_NULL_" ;
        crnd-attribute:rowno        "224"^^xsd:string ;
        crnd-attribute:unit         "_NULL_"^^xsd:string ;
        crnd-dimension:aedecod      code:aedecod-NASAL_CONGESTION ;
        crnd-dimension:aesoc        code:aesoc-RESPIRATORY__THORACIC_AND_MEDIASTINAL_DISORDERS ;
        crnd-dimension:factor       code:factor-quantity ;
        crnd-dimension:procedure    code:procedure-count ;
        crnd-dimension:saffl        code:saffl-Y ;
        crnd-dimension:trta         code:trta-_ALL_ ;
        crnd-measure:measure        "8"^^xsd:double .

ds:obs0212  a                       qb:Observation ;
        rdfs:comment                "Statistic for number of records/Statistics for factor with the dimensions XX"@en ;
        rdfs:label                  "212"^^xsd:string ;
        qb:dataSet                  ds:dataset-AE ;
        crnd-attribute:cellpartno   "2"^^xsd:string ;
        crnd-attribute:colno        "1"^^xsd:string ;
        crnd-attribute:denominator  "_NULL_" ;
        crnd-attribute:rowno        "200"^^xsd:string ;
        crnd-attribute:unit         "_NULL_"^^xsd:string ;
        crnd-dimension:aedecod      code:aedecod-IRRITABILITY ;
        crnd-dimension:aesoc        code:aesoc-PSYCHIATRIC_DISORDERS ;
        crnd-dimension:factor       code:factor-USUBJID ;
        crnd-dimension:procedure    code:procedure-countdistinct ;
        crnd-dimension:saffl        code:saffl-Y ;
        crnd-dimension:trta         code:trta-Placebo ;
        crnd-measure:measure        "1"^^xsd:double .

ds:obs0937  a                       qb:Observation ;
        rdfs:comment                "Statistic for number of records/Statistics for factor with the dimensions XX"@en ;
        rdfs:label                  "937"^^xsd:string ;
        qb:dataSet                  ds:dataset-AE ;
        crnd-attribute:cellpartno   "1"^^xsd:string ;
        crnd-attribute:colno        "4"^^xsd:string ;
        crnd-attribute:denominator  "_NULL_" ;
        crnd-attribute:rowno        "32"^^xsd:string ;
        crnd-attribute:unit         "_NULL_"^^xsd:string ;
        crnd-dimension:aedecod      code:aedecod-CONJUNCTIVITIS ;
        crnd-dimension:aesoc        code:aesoc-EYE_DISORDERS ;
        crnd-dimension:factor       code:factor-quantity ;
        crnd-dimension:procedure    code:procedure-count ;
        crnd-dimension:saffl        code:saffl-Y ;
        crnd-dimension:trta         code:trta-_ALL_ ;
        crnd-measure:measure        "4"^^xsd:double .

ds:obs0478  a                       qb:Observation ;
        rdfs:comment                "Statistic for number of records/Statistics for factor with the dimensions XX"@en ;
        rdfs:label                  "478"^^xsd:string ;
        qb:dataSet                  ds:dataset-AE ;
        crnd-attribute:cellpartno   "2"^^xsd:string ;
        crnd-attribute:colno        "2"^^xsd:string ;
        crnd-attribute:denominator  "_NULL_" ;
        crnd-attribute:rowno        "185"^^xsd:string ;
        crnd-attribute:unit         "_NULL_"^^xsd:string ;
        crnd-dimension:aedecod      code:aedecod-SYNCOPE ;
        crnd-dimension:aesoc        code:aesoc-NERVOUS_SYSTEM_DISORDERS ;
        crnd-dimension:factor       code:factor-USUBJID ;
        crnd-dimension:procedure    code:procedure-countdistinct ;
        crnd-dimension:saffl        code:saffl-Y ;
        crnd-dimension:trta         code:trta-Xanomeline_High_Dose ;
        crnd-measure:measure        "3"^^xsd:double .

ds:obs1334  a                       qb:Observation ;
        rdfs:comment                "Statistic for number of records/Statistics for factor with the dimensions XX"@en ;
        rdfs:label                  "1334"^^xsd:string ;
        qb:dataSet                  ds:dataset-AE ;
        crnd-attribute:cellpartno   "2"^^xsd:string ;
        crnd-attribute:colno        "4"^^xsd:string ;
        crnd-attribute:denominator  "_NULL_" ;
        crnd-attribute:rowno        "230"^^xsd:string ;
        crnd-attribute:unit         "_NULL_"^^xsd:string ;
        crnd-dimension:aedecod      code:aedecod-RESPIRATORY_TRACT_CONGESTION ;
        crnd-dimension:aesoc        code:aesoc-RESPIRATORY__THORACIC_AND_MEDIASTINAL_DISORDERS ;
        crnd-dimension:factor       code:factor-USUBJID ;
        crnd-dimension:procedure    code:procedure-countdistinct ;
        crnd-dimension:saffl        code:saffl-Y ;
        crnd-dimension:trta         code:trta-_ALL_ ;
        crnd-measure:measure        "1"^^xsd:double .

ds:obs0225  a                       qb:Observation ;
        rdfs:comment                "Statistic for number of records/Statistics for factor with the dimensions XX"@en ;
        rdfs:label                  "225"^^xsd:string ;
        qb:dataSet                  ds:dataset-AE ;
        crnd-attribute:cellpartno   "1"^^xsd:string ;
        crnd-attribute:colno        "1"^^xsd:string ;
        crnd-attribute:denominator  "_NULL_" ;
        crnd-attribute:rowno        "214"^^xsd:string ;
        crnd-attribute:unit         "_NULL_"^^xsd:string ;
        crnd-dimension:aedecod      code:aedecod-BENIGN_PROSTATIC_HYPERPLASIA ;
        crnd-dimension:aesoc        code:aesoc-REPRODUCTIVE_SYSTEM_AND_BREAST_DISORDERS ;
        crnd-dimension:factor       code:factor-quantity ;
        crnd-dimension:procedure    code:procedure-count ;
        crnd-dimension:saffl        code:saffl-Y ;
        crnd-dimension:trta         code:trta-Placebo ;
        crnd-measure:measure        "2"^^xsd:double .

ds:obs0772  a                       qb:Observation ;
        rdfs:comment                "Statistic for number of records/Statistics for factor with the dimensions XX"@en ;
        rdfs:label                  "772"^^xsd:string ;
        qb:dataSet                  ds:dataset-AE ;
        crnd-attribute:cellpartno   "2"^^xsd:string ;
        crnd-attribute:colno        "3"^^xsd:string ;
        crnd-attribute:denominator  "_NULL_" ;
        crnd-attribute:rowno        "165"^^xsd:string ;
        crnd-attribute:unit         "_NULL_"^^xsd:string ;
        crnd-dimension:aedecod      code:aedecod-_ALL_ ;
        crnd-dimension:aesoc        code:aesoc-NERVOUS_SYSTEM_DISORDERS ;
        crnd-dimension:factor       code:factor-USUBJID ;
        crnd-dimension:procedure    code:procedure-countdistinct ;
        crnd-dimension:saffl        code:saffl-Y ;
        crnd-dimension:trta         code:trta-Xanomeline_Low_Dose ;
        crnd-measure:measure        "20"^^xsd:double .

code:aedecod-DYSPEPSIA
        a                             code:Aedecod , skos:Concept ;
        rdfs:comment                  "Coded values from data source. No reconciliation against another source"@en ;
        rrdfqbcrnd0:R-selectionoperator
                "=="^^xsd:string ;
        rrdfqbcrnd0:R-selectionvalue  "DYSPEPSIA"^^xsd:string ;
        skos:inScheme                 code:aedecod ;
        skos:prefLabel                "DYSPEPSIA"^^xsd:string ;
        skos:topConceptOf             code:aedecod .

ds:obs0060  a                       qb:Observation ;
        rdfs:comment                "Statistic for number of records/Statistics for factor with the dimensions XX"@en ;
        rdfs:label                  "60"^^xsd:string ;
        qb:dataSet                  ds:dataset-AE ;
        crnd-attribute:cellpartno   "2"^^xsd:string ;
        crnd-attribute:colno        "1"^^xsd:string ;
        crnd-attribute:denominator  "_NULL_" ;
        crnd-attribute:rowno        "45"^^xsd:string ;
        crnd-attribute:unit         "_NULL_"^^xsd:string ;
        crnd-dimension:aedecod      code:aedecod-FLATULENCE ;
        crnd-dimension:aesoc        code:aesoc-GASTROINTESTINAL_DISORDERS ;
        crnd-dimension:factor       code:factor-USUBJID ;
        crnd-dimension:procedure    code:procedure-countdistinct ;
        crnd-dimension:saffl        code:saffl-Y ;
        crnd-dimension:trta         code:trta-Placebo ;
        crnd-measure:measure        "1"^^xsd:double .

ds:obs1347  a                       qb:Observation ;
        rdfs:comment                "Statistic for number of records/Statistics for factor with the dimensions XX"@en ;
        rdfs:label                  "1347"^^xsd:string ;
        qb:dataSet                  ds:dataset-AE ;
        crnd-attribute:cellpartno   "1"^^xsd:string ;
        crnd-attribute:colno        "4"^^xsd:string ;
        crnd-attribute:denominator  "_NULL_" ;
        crnd-attribute:rowno        "237"^^xsd:string ;
        crnd-attribute:unit         "_NULL_"^^xsd:string ;
        crnd-dimension:aedecod      code:aedecod-DERMATITIS_ATOPIC ;
        crnd-dimension:aesoc        code:aesoc-SKIN_AND_SUBCUTANEOUS_TISSUE_DISORDERS ;
        crnd-dimension:factor       code:factor-quantity ;
        crnd-dimension:procedure    code:procedure-count ;
        crnd-dimension:saffl        code:saffl-Y ;
        crnd-dimension:trta         code:trta-_ALL_ ;
        crnd-measure:measure        "1"^^xsd:double .

ds:obs0238  a                       qb:Observation ;
        rdfs:comment                "Statistic for number of records/Statistics for factor with the dimensions XX"@en ;
        rdfs:label                  "238"^^xsd:string ;
        qb:dataSet                  ds:dataset-AE ;
        crnd-attribute:cellpartno   "2"^^xsd:string ;
        crnd-attribute:colno        "1"^^xsd:string ;
        crnd-attribute:denominator  "_NULL_" ;
        crnd-attribute:rowno        "223"^^xsd:string ;
        crnd-attribute:unit         "_NULL_"^^xsd:string ;
        crnd-dimension:aedecod      code:aedecod-HAEMOPTYSIS ;
        crnd-dimension:aesoc        code:aesoc-RESPIRATORY__THORACIC_AND_MEDIASTINAL_DISORDERS ;
        crnd-dimension:factor       code:factor-USUBJID ;
        crnd-dimension:procedure    code:procedure-countdistinct ;
        crnd-dimension:saffl        code:saffl-Y ;
        crnd-dimension:trta         code:trta-Placebo ;
        crnd-measure:measure        "1"^^xsd:double .

ds:obs0785  a                       qb:Observation ;
        rdfs:comment                "Statistic for number of records/Statistics for factor with the dimensions XX"@en ;
        rdfs:label                  "785"^^xsd:string ;
        qb:dataSet                  ds:dataset-AE ;
        crnd-attribute:cellpartno   "1"^^xsd:string ;
        crnd-attribute:colno        "3"^^xsd:string ;
        crnd-attribute:denominator  "_NULL_" ;
        crnd-attribute:rowno        "176"^^xsd:string ;
        crnd-attribute:unit         "_NULL_"^^xsd:string ;
        crnd-dimension:aedecod      code:aedecod-LETHARGY ;
        crnd-dimension:aesoc        code:aesoc-NERVOUS_SYSTEM_DISORDERS ;
        crnd-dimension:factor       code:factor-quantity ;
        crnd-dimension:procedure    code:procedure-count ;
        crnd-dimension:saffl        code:saffl-Y ;
        crnd-dimension:trta         code:trta-Xanomeline_Low_Dose ;
        crnd-measure:measure        "1"^^xsd:double .

ds:obs0532  a                       qb:Observation ;
        rdfs:comment                "Statistic for number of records/Statistics for factor with the dimensions XX"@en ;
        rdfs:label                  "532"^^xsd:string ;
        qb:dataSet                  ds:dataset-AE ;
        crnd-attribute:cellpartno   "2"^^xsd:string ;
        crnd-attribute:colno        "2"^^xsd:string ;
        crnd-attribute:denominator  "_NULL_" ;
        crnd-attribute:rowno        "225"^^xsd:string ;
        crnd-attribute:unit         "_NULL_"^^xsd:string ;
        crnd-dimension:aedecod      code:aedecod-PHARYNGEAL_ERYTHEMA ;
        crnd-dimension:aesoc        code:aesoc-RESPIRATORY__THORACIC_AND_MEDIASTINAL_DISORDERS ;
        crnd-dimension:factor       code:factor-USUBJID ;
        crnd-dimension:procedure    code:procedure-countdistinct ;
        crnd-dimension:saffl        code:saffl-Y ;
        crnd-dimension:trta         code:trta-Xanomeline_High_Dose ;
        crnd-measure:measure        "1"^^xsd:double .

ds:obs1182  a                       qb:Observation ;
        rdfs:comment                "Statistic for number of records/Statistics for factor with the dimensions XX"@en ;
        rdfs:label                  "1182"^^xsd:string ;
        qb:dataSet                  ds:dataset-AE ;
        crnd-attribute:cellpartno   "2"^^xsd:string ;
        crnd-attribute:colno        "4"^^xsd:string ;
        crnd-attribute:denominator  "_NULL_" ;
        crnd-attribute:rowno        "154"^^xsd:string ;
        crnd-attribute:unit         "_NULL_"^^xsd:string ;
        crnd-dimension:aedecod      code:aedecod-BACK_PAIN ;
        crnd-dimension:aesoc        code:aesoc-MUSCULOSKELETAL_AND_CONNECTIVE_TISSUE_DISORDERS ;
        crnd-dimension:factor       code:factor-USUBJID ;
        crnd-dimension:procedure    code:procedure-countdistinct ;
        crnd-dimension:saffl        code:saffl-Y ;
        crnd-dimension:trta         code:trta-_ALL_ ;
        crnd-measure:measure        "5"^^xsd:double .

ds:obs0073  a                       qb:Observation ;
        rdfs:comment                "Statistic for number of records/Statistics for factor with the dimensions XX"@en ;
        rdfs:label                  "73"^^xsd:string ;
        qb:dataSet                  ds:dataset-AE ;
        crnd-attribute:cellpartno   "1"^^xsd:string ;
        crnd-attribute:colno        "1"^^xsd:string ;
        crnd-attribute:denominator  "_NULL_" ;
        crnd-attribute:rowno        "57"^^xsd:string ;
        crnd-attribute:unit         "_NULL_"^^xsd:string ;
        crnd-dimension:aedecod      code:aedecod-APPLICATION_SITE_DERMATITIS ;
        crnd-dimension:aesoc        code:aesoc-GENERAL_DISORDERS_AND_ADMINISTRATION_SITE_CONDITIONS ;
        crnd-dimension:factor       code:factor-quantity ;
        crnd-dimension:procedure    code:procedure-count ;
        crnd-dimension:saffl        code:saffl-Y ;
        crnd-dimension:trta         code:trta-Placebo ;
        crnd-measure:measure        "9"^^xsd:double .

ds:obs0798  a                       qb:Observation ;
        rdfs:comment                "Statistic for number of records/Statistics for factor with the dimensions XX"@en ;
        rdfs:label                  "798"^^xsd:string ;
        qb:dataSet                  ds:dataset-AE ;
        crnd-attribute:cellpartno   "2"^^xsd:string ;
        crnd-attribute:colno        "3"^^xsd:string ;
        crnd-attribute:denominator  "_NULL_" ;
        crnd-attribute:rowno        "188"^^xsd:string ;
        crnd-attribute:unit         "_NULL_"^^xsd:string ;
        crnd-dimension:aedecod      code:aedecod-_ALL_ ;
        crnd-dimension:aesoc        code:aesoc-PSYCHIATRIC_DISORDERS ;
        crnd-dimension:factor       code:factor-USUBJID ;
        crnd-dimension:procedure    code:procedure-countdistinct ;
        crnd-dimension:saffl        code:saffl-Y ;
        crnd-dimension:trta         code:trta-Xanomeline_Low_Dose ;
        crnd-measure:measure        "10"^^xsd:double .

ds:obs1107  a                       qb:Observation ;
        rdfs:comment                "Statistic for number of records/Statistics for factor with the dimensions XX"@en ;
        rdfs:label                  "1107"^^xsd:string ;
        qb:dataSet                  ds:dataset-AE ;
        crnd-attribute:cellpartno   "1"^^xsd:string ;
        crnd-attribute:colno        "4"^^xsd:string ;
        crnd-attribute:denominator  "_NULL_" ;
        crnd-attribute:rowno        "117"^^xsd:string ;
        crnd-attribute:unit         "_NULL_"^^xsd:string ;
        crnd-dimension:aedecod      code:aedecod-FACIAL_BONES_FRACTURE ;
        crnd-dimension:aesoc        code:aesoc-INJURY__POISONING_AND_PROCEDURAL_COMPLICATIONS ;
        crnd-dimension:factor       code:factor-quantity ;
        crnd-dimension:procedure    code:procedure-count ;
        crnd-dimension:saffl        code:saffl-Y ;
        crnd-dimension:trta         code:trta-_ALL_ ;
        crnd-measure:measure        "1"^^xsd:double .

ds:obs0545  a                       qb:Observation ;
        rdfs:comment                "Statistic for number of records/Statistics for factor with the dimensions XX"@en ;
        rdfs:label                  "545"^^xsd:string ;
        qb:dataSet                  ds:dataset-AE ;
        crnd-attribute:cellpartno   "1"^^xsd:string ;
        crnd-attribute:colno        "2"^^xsd:string ;
        crnd-attribute:denominator  "_NULL_" ;
        crnd-attribute:rowno        "235"^^xsd:string ;
        crnd-attribute:unit         "_NULL_"^^xsd:string ;
        crnd-dimension:aedecod      code:aedecod-BLISTER ;
        crnd-dimension:aesoc        code:aesoc-SKIN_AND_SUBCUTANEOUS_TISSUE_DISORDERS ;
        crnd-dimension:factor       code:factor-quantity ;
        crnd-dimension:procedure    code:procedure-count ;
        crnd-dimension:saffl        code:saffl-Y ;
        crnd-dimension:trta         code:trta-Xanomeline_High_Dose ;
        crnd-measure:measure        "2"^^xsd:double .

ds:obs1401  a                       qb:Observation ;
        rdfs:comment                "Statistic for number of records/Statistics for factor with the dimensions XX"@en ;
        rdfs:label                  "1401"^^xsd:string ;
        qb:dataSet                  ds:dataset-AE ;
        crnd-attribute:cellpartno   "1"^^xsd:string ;
        crnd-attribute:colno        "4"^^xsd:string ;
        crnd-attribute:denominator  "_NULL_" ;
        crnd-attribute:rowno        "264"^^xsd:string ;
        crnd-attribute:unit         "_NULL_"^^xsd:string ;
        crnd-dimension:aedecod      code:aedecod-HYPOTENSION ;
        crnd-dimension:aesoc        code:aesoc-VASCULAR_DISORDERS ;
        crnd-dimension:factor       code:factor-quantity ;
        crnd-dimension:procedure    code:procedure-count ;
        crnd-dimension:saffl        code:saffl-Y ;
        crnd-dimension:trta         code:trta-_ALL_ ;
        crnd-measure:measure        "4"^^xsd:double .

ds:obs1195  a                       qb:Observation ;
        rdfs:comment                "Statistic for number of records/Statistics for factor with the dimensions XX"@en ;
        rdfs:label                  "1195"^^xsd:string ;
        qb:dataSet                  ds:dataset-AE ;
        crnd-attribute:cellpartno   "1"^^xsd:string ;
        crnd-attribute:colno        "4"^^xsd:string ;
        crnd-attribute:denominator  "_NULL_" ;
        crnd-attribute:rowno        "161"^^xsd:string ;
        crnd-attribute:unit         "_NULL_"^^xsd:string ;
        crnd-dimension:aedecod      code:aedecod-_ALL_ ;
        crnd-dimension:aesoc        code:aesoc-NEOPLASMS_BENIGN__MALIGNANT_AND_UNSPECIFIED__INCL_CYSTS_AND_POLYPS_ ;
        crnd-dimension:factor       code:factor-quantity ;
        crnd-dimension:procedure    code:procedure-count ;
        crnd-dimension:saffl        code:saffl-Y ;
        crnd-dimension:trta         code:trta-_ALL_ ;
        crnd-measure:measure        "4"^^xsd:double .

ds:obs0086  a                       qb:Observation ;
        rdfs:comment                "Statistic for number of records/Statistics for factor with the dimensions XX"@en ;
        rdfs:label                  "86"^^xsd:string ;
        qb:dataSet                  ds:dataset-AE ;
        crnd-attribute:cellpartno   "2"^^xsd:string ;
        crnd-attribute:colno        "1"^^xsd:string ;
        crnd-attribute:denominator  "_NULL_" ;
        crnd-attribute:rowno        "70"^^xsd:string ;
        crnd-attribute:unit         "_NULL_"^^xsd:string ;
        crnd-dimension:aedecod      code:aedecod-APPLICATION_SITE_VESICLES ;
        crnd-dimension:aesoc        code:aesoc-GENERAL_DISORDERS_AND_ADMINISTRATION_SITE_CONDITIONS ;
        crnd-dimension:factor       code:factor-USUBJID ;
        crnd-dimension:procedure    code:procedure-countdistinct ;
        crnd-dimension:saffl        code:saffl-Y ;
        crnd-dimension:trta         code:trta-Placebo ;
        crnd-measure:measure        "1"^^xsd:double .

ds:obs0380  a                       qb:Observation ;
        rdfs:comment                "Statistic for number of records/Statistics for factor with the dimensions XX"@en ;
        rdfs:label                  "380"^^xsd:string ;
        qb:dataSet                  ds:dataset-AE ;
        crnd-attribute:cellpartno   "2"^^xsd:string ;
        crnd-attribute:colno        "2"^^xsd:string ;
        crnd-attribute:denominator  "_NULL_" ;
        crnd-attribute:rowno        "92"^^xsd:string ;
        crnd-attribute:unit         "_NULL_"^^xsd:string ;
        crnd-dimension:aedecod      code:aedecod-_ALL_ ;
        crnd-dimension:aesoc        code:aesoc-IMMUNE_SYSTEM_DISORDERS ;
        crnd-dimension:factor       code:factor-USUBJID ;
        crnd-dimension:procedure    code:procedure-countdistinct ;
        crnd-dimension:saffl        code:saffl-Y ;
        crnd-dimension:trta         code:trta-Xanomeline_High_Dose ;
        crnd-measure:measure        "1"^^xsd:double .

ds:obs0558  a                       qb:Observation ;
        rdfs:comment                "Statistic for number of records/Statistics for factor with the dimensions XX"@en ;
        rdfs:label                  "558"^^xsd:string ;
        qb:dataSet                  ds:dataset-AE ;
        crnd-attribute:cellpartno   "2"^^xsd:string ;
        crnd-attribute:colno        "2"^^xsd:string ;
        crnd-attribute:denominator  "_NULL_" ;
        crnd-attribute:rowno        "246"^^xsd:string ;
        crnd-attribute:unit         "_NULL_"^^xsd:string ;
        crnd-dimension:aedecod      code:aedecod-RASH_MACULO-PAPULAR ;
        crnd-dimension:aesoc        code:aesoc-SKIN_AND_SUBCUTANEOUS_TISSUE_DISORDERS ;
        crnd-dimension:factor       code:factor-USUBJID ;
        crnd-dimension:procedure    code:procedure-countdistinct ;
        crnd-dimension:saffl        code:saffl-Y ;
        crnd-dimension:trta         code:trta-Xanomeline_High_Dose ;
        crnd-measure:measure        "1"^^xsd:double .

ds:obs0305  a                       qb:Observation ;
        rdfs:comment                "Statistic for number of records/Statistics for factor with the dimensions XX"@en ;
        rdfs:label                  "305"^^xsd:string ;
        qb:dataSet                  ds:dataset-AE ;
        crnd-attribute:cellpartno   "1"^^xsd:string ;
        crnd-attribute:colno        "2"^^xsd:string ;
        crnd-attribute:denominator  "_NULL_" ;
        crnd-attribute:rowno        "25"^^xsd:string ;
        crnd-attribute:unit         "_NULL_"^^xsd:string ;
        crnd-dimension:aedecod      code:aedecod-_ALL_ ;
        crnd-dimension:aesoc        code:aesoc-EAR_AND_LABYRINTH_DISORDERS ;
        crnd-dimension:factor       code:factor-quantity ;
        crnd-dimension:procedure    code:procedure-count ;
        crnd-dimension:saffl        code:saffl-Y ;
        crnd-dimension:trta         code:trta-Xanomeline_High_Dose ;
        crnd-measure:measure        "1"^^xsd:double .

ds:obs0852  a                       qb:Observation ;
        rdfs:comment                "Statistic for number of records/Statistics for factor with the dimensions XX"@en ;
        rdfs:label                  "852"^^xsd:string ;
        qb:dataSet                  ds:dataset-AE ;
        crnd-attribute:cellpartno   "2"^^xsd:string ;
        crnd-attribute:colno        "3"^^xsd:string ;
        crnd-attribute:denominator  "_NULL_" ;
        crnd-attribute:rowno        "244"^^xsd:string ;
        crnd-attribute:unit         "_NULL_"^^xsd:string ;
        crnd-dimension:aedecod      code:aedecod-RASH ;
        crnd-dimension:aesoc        code:aesoc-SKIN_AND_SUBCUTANEOUS_TISSUE_DISORDERS ;
        crnd-dimension:factor       code:factor-USUBJID ;
        crnd-dimension:procedure    code:procedure-countdistinct ;
        crnd-dimension:saffl        code:saffl-Y ;
        crnd-dimension:trta         code:trta-Xanomeline_Low_Dose ;
        crnd-measure:measure        "13"^^xsd:double .

ds:obs0099  a                       qb:Observation ;
        rdfs:comment                "Statistic for number of records/Statistics for factor with the dimensions XX"@en ;
        rdfs:label                  "99"^^xsd:string ;
        qb:dataSet                  ds:dataset-AE ;
        crnd-attribute:cellpartno   "1"^^xsd:string ;
        crnd-attribute:colno        "1"^^xsd:string ;
        crnd-attribute:denominator  "_NULL_" ;
        crnd-attribute:rowno        "91"^^xsd:string ;
        crnd-attribute:unit         "_NULL_"^^xsd:string ;
        crnd-dimension:aedecod      code:aedecod-HYPERBILIRUBINAEMIA ;
        crnd-dimension:aesoc        code:aesoc-HEPATOBILIARY_DISORDERS ;
        crnd-dimension:factor       code:factor-quantity ;
        crnd-dimension:procedure    code:procedure-count ;
        crnd-dimension:saffl        code:saffl-Y ;
        crnd-dimension:trta         code:trta-Placebo ;
        crnd-measure:measure        "1"^^xsd:double .

ds:obs0393  a                       qb:Observation ;
        rdfs:comment                "Statistic for number of records/Statistics for factor with the dimensions XX"@en ;
        rdfs:label                  "393"^^xsd:string ;
        qb:dataSet                  ds:dataset-AE ;
        crnd-attribute:cellpartno   "1"^^xsd:string ;
        crnd-attribute:colno        "2"^^xsd:string ;
        crnd-attribute:denominator  "_NULL_" ;
        crnd-attribute:rowno        "106"^^xsd:string ;
        crnd-attribute:unit         "_NULL_"^^xsd:string ;
        crnd-dimension:aedecod      code:aedecod-NASOPHARYNGITIS ;
        crnd-dimension:aesoc        code:aesoc-INFECTIONS_AND_INFESTATIONS ;
        crnd-dimension:factor       code:factor-quantity ;
        crnd-dimension:procedure    code:procedure-count ;
        crnd-dimension:saffl        code:saffl-Y ;
        crnd-dimension:trta         code:trta-Xanomeline_High_Dose ;
        crnd-measure:measure        "8"^^xsd:double .

ds:obs0140  a                       qb:Observation ;
        rdfs:comment                "Statistic for number of records/Statistics for factor with the dimensions XX"@en ;
        rdfs:label                  "140"^^xsd:string ;
        qb:dataSet                  ds:dataset-AE ;
        crnd-attribute:cellpartno   "2"^^xsd:string ;
        crnd-attribute:colno        "1"^^xsd:string ;
        crnd-attribute:denominator  "_NULL_" ;
        crnd-attribute:rowno        "126"^^xsd:string ;
        crnd-attribute:unit         "_NULL_"^^xsd:string ;
        crnd-dimension:aedecod      code:aedecod-BLOOD_ALKALINE_PHOSPHATASE_INCREASED ;
        crnd-dimension:aesoc        code:aesoc-INVESTIGATIONS ;
        crnd-dimension:factor       code:factor-USUBJID ;
        crnd-dimension:procedure    code:procedure-countdistinct ;
        crnd-dimension:saffl        code:saffl-Y ;
        crnd-dimension:trta         code:trta-Placebo ;
        crnd-measure:measure        "1"^^xsd:double .

ds:obs0318  a                       qb:Observation ;
        rdfs:comment                "Statistic for number of records/Statistics for factor with the dimensions XX"@en ;
        rdfs:label                  "318"^^xsd:string ;
        qb:dataSet                  ds:dataset-AE ;
        crnd-attribute:cellpartno   "2"^^xsd:string ;
        crnd-attribute:colno        "2"^^xsd:string ;
        crnd-attribute:denominator  "_NULL_" ;
        crnd-attribute:rowno        "40"^^xsd:string ;
        crnd-attribute:unit         "_NULL_"^^xsd:string ;
        crnd-dimension:aedecod      code:aedecod-ABDOMINAL_PAIN ;
        crnd-dimension:aesoc        code:aesoc-GASTROINTESTINAL_DISORDERS ;
        crnd-dimension:factor       code:factor-USUBJID ;
        crnd-dimension:procedure    code:procedure-countdistinct ;
        crnd-dimension:saffl        code:saffl-Y ;
        crnd-dimension:trta         code:trta-Xanomeline_High_Dose ;
        crnd-measure:measure        "1"^^xsd:double .

ds:obs0865  a                       qb:Observation ;
        rdfs:comment                "Statistic for number of records/Statistics for factor with the dimensions XX"@en ;
        rdfs:label                  "865"^^xsd:string ;
        qb:dataSet                  ds:dataset-AE ;
        crnd-attribute:cellpartno   "1"^^xsd:string ;
        crnd-attribute:colno        "3"^^xsd:string ;
        crnd-attribute:denominator  "_NULL_" ;
        crnd-attribute:rowno        "258"^^xsd:string ;
        crnd-attribute:unit         "_NULL_"^^xsd:string ;
        crnd-dimension:aedecod      code:aedecod-CATARACT_OPERATION ;
        crnd-dimension:aesoc        code:aesoc-SURGICAL_AND_MEDICAL_PROCEDURES ;
        crnd-dimension:factor       code:factor-quantity ;
        crnd-dimension:procedure    code:procedure-count ;
        crnd-dimension:saffl        code:saffl-Y ;
        crnd-dimension:trta         code:trta-Xanomeline_Low_Dose ;
        crnd-measure:measure        "1"^^xsd:double .

code:trta-_NONMISS_  a     code:Trta , skos:Concept ;
        rdfs:comment       "NON-CDISC: Represents the non-missing codelist categories. Does not include missing values."@en ;
        rrdfqbcrnd0:R-selectionfunction
                "is.na"^^xsd:string ;
        skos:inScheme      code:trta ;
        skos:prefLabel     "_NONMISS_"^^xsd:string ;
        skos:topConceptOf  code:trta .

ds:obs0612  a                       qb:Observation ;
        rdfs:comment                "Statistic for number of records/Statistics for factor with the dimensions XX"@en ;
        rdfs:label                  "612"^^xsd:string ;
        qb:dataSet                  ds:dataset-AE ;
        crnd-attribute:cellpartno   "2"^^xsd:string ;
        crnd-attribute:colno        "3"^^xsd:string ;
        crnd-attribute:denominator  "_NULL_" ;
        crnd-attribute:rowno        "23"^^xsd:string ;
        crnd-attribute:unit         "_NULL_"^^xsd:string ;
        crnd-dimension:aedecod      code:aedecod-_ALL_ ;
        crnd-dimension:aesoc        code:aesoc-CONGENITAL__FAMILIAL_AND_GENETIC_DISORDERS ;
        crnd-dimension:factor       code:factor-USUBJID ;
        crnd-dimension:procedure    code:procedure-countdistinct ;
        crnd-dimension:saffl        code:saffl-Y ;
        crnd-dimension:trta         code:trta-Xanomeline_Low_Dose ;
        crnd-measure:measure        "1"^^xsd:double .

ds:obs1262  a                       qb:Observation ;
        rdfs:comment                "Statistic for number of records/Statistics for factor with the dimensions XX"@en ;
        rdfs:label                  "1262"^^xsd:string ;
        qb:dataSet                  ds:dataset-AE ;
        crnd-attribute:cellpartno   "2"^^xsd:string ;
        crnd-attribute:colno        "4"^^xsd:string ;
        crnd-attribute:denominator  "_NULL_" ;
        crnd-attribute:rowno        "194"^^xsd:string ;
        crnd-attribute:unit         "_NULL_"^^xsd:string ;
        crnd-dimension:aedecod      code:aedecod-DELUSION ;
        crnd-dimension:aesoc        code:aesoc-PSYCHIATRIC_DISORDERS ;
        crnd-dimension:factor       code:factor-USUBJID ;
        crnd-dimension:procedure    code:procedure-countdistinct ;
        crnd-dimension:saffl        code:saffl-Y ;
        crnd-dimension:trta         code:trta-_ALL_ ;
        crnd-measure:measure        "2"^^xsd:double .

ds:obs0153  a                       qb:Observation ;
        rdfs:comment                "Statistic for number of records/Statistics for factor with the dimensions XX"@en ;
        rdfs:label                  "153"^^xsd:string ;
        qb:dataSet                  ds:dataset-AE ;
        crnd-attribute:cellpartno   "1"^^xsd:string ;
        crnd-attribute:colno        "1"^^xsd:string ;
        crnd-attribute:denominator  "_NULL_" ;
        crnd-attribute:rowno        "136"^^xsd:string ;
        crnd-attribute:unit         "_NULL_"^^xsd:string ;
        crnd-dimension:aedecod      code:aedecod-HEART_RATE_INCREASED ;
        crnd-dimension:aesoc        code:aesoc-INVESTIGATIONS ;
        crnd-dimension:factor       code:factor-quantity ;
        crnd-dimension:procedure    code:procedure-count ;
        crnd-dimension:saffl        code:saffl-Y ;
        crnd-dimension:trta         code:trta-Placebo ;
        crnd-measure:measure        "2"^^xsd:double .

ds:obs0878  a                       qb:Observation ;
        rdfs:comment                "Statistic for number of records/Statistics for factor with the dimensions XX"@en ;
        rdfs:label                  "878"^^xsd:string ;
        qb:dataSet                  ds:dataset-AE ;
        crnd-attribute:cellpartno   "2"^^xsd:string ;
        crnd-attribute:colno        "4"^^xsd:string ;
        crnd-attribute:denominator  "_NULL_" ;
        crnd-attribute:rowno        "2"^^xsd:string ;
        crnd-attribute:unit         "_NULL_"^^xsd:string ;
        crnd-dimension:aedecod      code:aedecod-_ALL_ ;
        crnd-dimension:aesoc        code:aesoc-CARDIAC_DISORDERS ;
        crnd-dimension:factor       code:factor-USUBJID ;
        crnd-dimension:procedure    code:procedure-countdistinct ;
        crnd-dimension:saffl        code:saffl-Y ;
        crnd-dimension:trta         code:trta-_ALL_ ;
        crnd-measure:measure        "44"^^xsd:double .

ds:obs0625  a                       qb:Observation ;
        rdfs:comment                "Statistic for number of records/Statistics for factor with the dimensions XX"@en ;
        rdfs:label                  "625"^^xsd:string ;
        qb:dataSet                  ds:dataset-AE ;
        crnd-attribute:cellpartno   "1"^^xsd:string ;
        crnd-attribute:colno        "3"^^xsd:string ;
        crnd-attribute:denominator  "_NULL_" ;
        crnd-attribute:rowno        "31"^^xsd:string ;
        crnd-attribute:unit         "_NULL_"^^xsd:string ;
        crnd-dimension:aedecod      code:aedecod-CONJUNCTIVAL_HAEMORRHAGE ;
        crnd-dimension:aesoc        code:aesoc-EYE_DISORDERS ;
        crnd-dimension:factor       code:factor-quantity ;
        crnd-dimension:procedure    code:procedure-count ;
        crnd-dimension:saffl        code:saffl-Y ;
        crnd-dimension:trta         code:trta-Xanomeline_Low_Dose ;
        crnd-measure:measure        "1"^^xsd:double .

ds:obs1275  a                       qb:Observation ;
        rdfs:comment                "Statistic for number of records/Statistics for factor with the dimensions XX"@en ;
        rdfs:label                  "1275"^^xsd:string ;
        qb:dataSet                  ds:dataset-AE ;
        crnd-attribute:cellpartno   "1"^^xsd:string ;
        crnd-attribute:colno        "4"^^xsd:string ;
        crnd-attribute:denominator  "_NULL_" ;
        crnd-attribute:rowno        "201"^^xsd:string ;
        crnd-attribute:unit         "_NULL_"^^xsd:string ;
        crnd-dimension:aedecod      code:aedecod-LIBIDO_DECREASED ;
        crnd-dimension:aesoc        code:aesoc-PSYCHIATRIC_DISORDERS ;
        crnd-dimension:factor       code:factor-quantity ;
        crnd-dimension:procedure    code:procedure-count ;
        crnd-dimension:saffl        code:saffl-Y ;
        crnd-dimension:trta         code:trta-_ALL_ ;
        crnd-measure:measure        "1"^^xsd:double .

ds:obs0166  a                       qb:Observation ;
        rdfs:comment                "Statistic for number of records/Statistics for factor with the dimensions XX"@en ;
        rdfs:label                  "166"^^xsd:string ;
        qb:dataSet                  ds:dataset-AE ;
        crnd-attribute:cellpartno   "2"^^xsd:string ;
        crnd-attribute:colno        "1"^^xsd:string ;
        crnd-attribute:denominator  "_NULL_" ;
        crnd-attribute:rowno        "147"^^xsd:string ;
        crnd-attribute:unit         "_NULL_"^^xsd:string ;
        crnd-dimension:aedecod      code:aedecod-FOOD_CRAVING ;
        crnd-dimension:aesoc        code:aesoc-METABOLISM_AND_NUTRITION_DISORDERS ;
        crnd-dimension:factor       code:factor-USUBJID ;
        crnd-dimension:procedure    code:procedure-countdistinct ;
        crnd-dimension:saffl        code:saffl-Y ;
        crnd-dimension:trta         code:trta-Placebo ;
        crnd-measure:measure        "1"^^xsd:double .

ds:obs1022  a                       qb:Observation ;
        rdfs:comment                "Statistic for number of records/Statistics for factor with the dimensions XX"@en ;
        rdfs:label                  "1022"^^xsd:string ;
        qb:dataSet                  ds:dataset-AE ;
        crnd-attribute:cellpartno   "2"^^xsd:string ;
        crnd-attribute:colno        "4"^^xsd:string ;
        crnd-attribute:denominator  "_NULL_" ;
        crnd-attribute:rowno        "74"^^xsd:string ;
        crnd-attribute:unit         "_NULL_"^^xsd:string ;
        crnd-dimension:aedecod      code:aedecod-CHEST_PAIN ;
        crnd-dimension:aesoc        code:aesoc-GENERAL_DISORDERS_AND_ADMINISTRATION_SITE_CONDITIONS ;
        crnd-dimension:factor       code:factor-USUBJID ;
        crnd-dimension:procedure    code:procedure-countdistinct ;
        crnd-dimension:saffl        code:saffl-Y ;
        crnd-dimension:trta         code:trta-_ALL_ ;
        crnd-measure:measure        "2"^^xsd:double .

ds:obs0460  a                       qb:Observation ;
        rdfs:comment                "Statistic for number of records/Statistics for factor with the dimensions XX"@en ;
        rdfs:label                  "460"^^xsd:string ;
        qb:dataSet                  ds:dataset-AE ;
        crnd-attribute:cellpartno   "2"^^xsd:string ;
        crnd-attribute:colno        "2"^^xsd:string ;
        crnd-attribute:denominator  "_NULL_" ;
        crnd-attribute:rowno        "169"^^xsd:string ;
        crnd-attribute:unit         "_NULL_"^^xsd:string ;
        crnd-dimension:aedecod      code:aedecod-COGNITIVE_DISORDER ;
        crnd-dimension:aesoc        code:aesoc-NERVOUS_SYSTEM_DISORDERS ;
        crnd-dimension:factor       code:factor-USUBJID ;
        crnd-dimension:procedure    code:procedure-countdistinct ;
        crnd-dimension:saffl        code:saffl-Y ;
        crnd-dimension:trta         code:trta-Xanomeline_High_Dose ;
        crnd-measure:measure        "1"^^xsd:double .

code:aedecod-SUPRAVENTRICULAR_TACHYCARDIA
        a                             code:Aedecod , skos:Concept ;
        rdfs:comment                  "Coded values from data source. No reconciliation against another source"@en ;
        rrdfqbcrnd0:R-selectionoperator
                "=="^^xsd:string ;
        rrdfqbcrnd0:R-selectionvalue  "SUPRAVENTRICULAR TACHYCARDIA"^^xsd:string ;
        skos:inScheme                 code:aedecod ;
        skos:prefLabel                "SUPRAVENTRICULAR TACHYCARDIA"^^xsd:string ;
        skos:topConceptOf             code:aedecod .

code:aedecod-CERVICITIS
        a                             code:Aedecod , skos:Concept ;
        rdfs:comment                  "Coded values from data source. No reconciliation against another source"@en ;
        rrdfqbcrnd0:R-selectionoperator
                "=="^^xsd:string ;
        rrdfqbcrnd0:R-selectionvalue  "CERVICITIS"^^xsd:string ;
        skos:inScheme                 code:aedecod ;
        skos:prefLabel                "CERVICITIS"^^xsd:string ;
        skos:topConceptOf             code:aedecod .

ds:obs0638  a                       qb:Observation ;
        rdfs:comment                "Statistic for number of records/Statistics for factor with the dimensions XX"@en ;
        rdfs:label                  "638"^^xsd:string ;
        qb:dataSet                  ds:dataset-AE ;
        crnd-attribute:cellpartno   "2"^^xsd:string ;
        crnd-attribute:colno        "3"^^xsd:string ;
        crnd-attribute:denominator  "_NULL_" ;
        crnd-attribute:rowno        "44"^^xsd:string ;
        crnd-attribute:unit         "_NULL_"^^xsd:string ;
        crnd-dimension:aedecod      code:aedecod-DYSPHAGIA ;
        crnd-dimension:aesoc        code:aesoc-GASTROINTESTINAL_DISORDERS ;
        crnd-dimension:factor       code:factor-USUBJID ;
        crnd-dimension:procedure    code:procedure-countdistinct ;
        crnd-dimension:saffl        code:saffl-Y ;
        crnd-dimension:trta         code:trta-Xanomeline_Low_Dose ;
        crnd-measure:measure        "1"^^xsd:double .

ds:obs0932  a                       qb:Observation ;
        rdfs:comment                "Statistic for number of records/Statistics for factor with the dimensions XX"@en ;
        rdfs:label                  "932"^^xsd:string ;
        qb:dataSet                  ds:dataset-AE ;
        crnd-attribute:cellpartno   "2"^^xsd:string ;
        crnd-attribute:colno        "4"^^xsd:string ;
        crnd-attribute:denominator  "_NULL_" ;
        crnd-attribute:rowno        "29"^^xsd:string ;
        crnd-attribute:unit         "_NULL_"^^xsd:string ;
        crnd-dimension:aedecod      code:aedecod-VERTIGO ;
        crnd-dimension:aesoc        code:aesoc-EAR_AND_LABYRINTH_DISORDERS ;
        crnd-dimension:factor       code:factor-USUBJID ;
        crnd-dimension:procedure    code:procedure-countdistinct ;
        crnd-dimension:saffl        code:saffl-Y ;
        crnd-dimension:trta         code:trta-_ALL_ ;
        crnd-measure:measure        "2"^^xsd:double .

ds:obs1288  a                       qb:Observation ;
        rdfs:comment                "Statistic for number of records/Statistics for factor with the dimensions XX"@en ;
        rdfs:label                  "1288"^^xsd:string ;
        qb:dataSet                  ds:dataset-AE ;
        crnd-attribute:cellpartno   "2"^^xsd:string ;
        crnd-attribute:colno        "4"^^xsd:string ;
        crnd-attribute:denominator  "_NULL_" ;
        crnd-attribute:rowno        "207"^^xsd:string ;
        crnd-attribute:unit         "_NULL_"^^xsd:string ;
        crnd-dimension:aedecod      code:aedecod-DYSURIA ;
        crnd-dimension:aesoc        code:aesoc-RENAL_AND_URINARY_DISORDERS ;
        crnd-dimension:factor       code:factor-USUBJID ;
        crnd-dimension:procedure    code:procedure-countdistinct ;
        crnd-dimension:saffl        code:saffl-Y ;
        crnd-dimension:trta         code:trta-_ALL_ ;
        crnd-measure:measure        "2"^^xsd:double .

ds:obs0179  a                       qb:Observation ;
        rdfs:comment                "Statistic for number of records/Statistics for factor with the dimensions XX"@en ;
        rdfs:label                  "179"^^xsd:string ;
        qb:dataSet                  ds:dataset-AE ;
        crnd-attribute:cellpartno   "1"^^xsd:string ;
        crnd-attribute:colno        "1"^^xsd:string ;
        crnd-attribute:denominator  "_NULL_" ;
        crnd-attribute:rowno        "159"^^xsd:string ;
        crnd-attribute:unit         "_NULL_"^^xsd:string ;
        crnd-dimension:aedecod      code:aedecod-PAIN_IN_EXTREMITY ;
        crnd-dimension:aesoc        code:aesoc-MUSCULOSKELETAL_AND_CONNECTIVE_TISSUE_DISORDERS ;
        crnd-dimension:factor       code:factor-quantity ;
        crnd-dimension:procedure    code:procedure-count ;
        crnd-dimension:saffl        code:saffl-Y ;
        crnd-dimension:trta         code:trta-Placebo ;
        crnd-measure:measure        "1"^^xsd:double .

ds:obs1035  a                       qb:Observation ;
        rdfs:comment                "Statistic for number of records/Statistics for factor with the dimensions XX"@en ;
        rdfs:label                  "1035"^^xsd:string ;
        qb:dataSet                  ds:dataset-AE ;
        crnd-attribute:cellpartno   "1"^^xsd:string ;
        crnd-attribute:colno        "4"^^xsd:string ;
        crnd-attribute:denominator  "_NULL_" ;
        crnd-attribute:rowno        "81"^^xsd:string ;
        crnd-attribute:unit         "_NULL_"^^xsd:string ;
        crnd-dimension:aedecod      code:aedecod-MALAISE ;
        crnd-dimension:aesoc        code:aesoc-GENERAL_DISORDERS_AND_ADMINISTRATION_SITE_CONDITIONS ;
        crnd-dimension:factor       code:factor-quantity ;
        crnd-dimension:procedure    code:procedure-count ;
        crnd-dimension:saffl        code:saffl-Y ;
        crnd-dimension:trta         code:trta-_ALL_ ;
        crnd-measure:measure        "5"^^xsd:double .

ds:obs0473  a                       qb:Observation ;
        rdfs:comment                "Statistic for number of records/Statistics for factor with the dimensions XX"@en ;
        rdfs:label                  "473"^^xsd:string ;
        qb:dataSet                  ds:dataset-AE ;
        crnd-attribute:cellpartno   "1"^^xsd:string ;
        crnd-attribute:colno        "2"^^xsd:string ;
        crnd-attribute:denominator  "_NULL_" ;
        crnd-attribute:rowno        "181"^^xsd:string ;
        crnd-attribute:unit         "_NULL_"^^xsd:string ;
        crnd-dimension:aedecod      code:aedecod-PARTIAL_SEIZURES_WITH_SECONDARY_GENERALISATION ;
        crnd-dimension:aesoc        code:aesoc-NERVOUS_SYSTEM_DISORDERS ;
        crnd-dimension:factor       code:factor-quantity ;
        crnd-dimension:procedure    code:procedure-count ;
        crnd-dimension:saffl        code:saffl-Y ;
        crnd-dimension:trta         code:trta-Xanomeline_High_Dose ;
        crnd-measure:measure        "1"^^xsd:double .

ds:obs0220  a                       qb:Observation ;
        rdfs:comment                "Statistic for number of records/Statistics for factor with the dimensions XX"@en ;
        rdfs:label                  "220"^^xsd:string ;
        qb:dataSet                  ds:dataset-AE ;
        crnd-attribute:cellpartno   "2"^^xsd:string ;
        crnd-attribute:colno        "1"^^xsd:string ;
        crnd-attribute:denominator  "_NULL_" ;
        crnd-attribute:rowno        "211"^^xsd:string ;
        crnd-attribute:unit         "_NULL_"^^xsd:string ;
        crnd-dimension:aedecod      code:aedecod-NEPHROLITHIASIS ;
        crnd-dimension:aesoc        code:aesoc-RENAL_AND_URINARY_DISORDERS ;
        crnd-dimension:factor       code:factor-USUBJID ;
        crnd-dimension:procedure    code:procedure-countdistinct ;
        crnd-dimension:saffl        code:saffl-Y ;
        crnd-dimension:trta         code:trta-Placebo ;
        crnd-measure:measure        "1"^^xsd:double .

ds:obs0945  a                       qb:Observation ;
        rdfs:comment                "Statistic for number of records/Statistics for factor with the dimensions XX"@en ;
        rdfs:label                  "945"^^xsd:string ;
        qb:dataSet                  ds:dataset-AE ;
        crnd-attribute:cellpartno   "1"^^xsd:string ;
        crnd-attribute:colno        "4"^^xsd:string ;
        crnd-attribute:denominator  "_NULL_" ;
        crnd-attribute:rowno        "36"^^xsd:string ;
        crnd-attribute:unit         "_NULL_"^^xsd:string ;
        crnd-dimension:aedecod      code:aedecod-GLAUCOMA ;
        crnd-dimension:aesoc        code:aesoc-EYE_DISORDERS ;
        crnd-dimension:factor       code:factor-quantity ;
        crnd-dimension:procedure    code:procedure-count ;
        crnd-dimension:saffl        code:saffl-Y ;
        crnd-dimension:trta         code:trta-_ALL_ ;
        crnd-measure:measure        "1"^^xsd:double .

code:aedecod-HOT_FLUSH
        a                             code:Aedecod , skos:Concept ;
        rdfs:comment                  "Coded values from data source. No reconciliation against another source"@en ;
        rrdfqbcrnd0:R-selectionoperator
                "=="^^xsd:string ;
        rrdfqbcrnd0:R-selectionvalue  "HOT FLUSH"^^xsd:string ;
        skos:inScheme                 code:aedecod ;
        skos:prefLabel                "HOT FLUSH"^^xsd:string ;
        skos:topConceptOf             code:aedecod .

ds:obs1048  a                       qb:Observation ;
        rdfs:comment                "Statistic for number of records/Statistics for factor with the dimensions XX"@en ;
        rdfs:label                  "1048"^^xsd:string ;
        qb:dataSet                  ds:dataset-AE ;
        crnd-attribute:cellpartno   "2"^^xsd:string ;
        crnd-attribute:colno        "4"^^xsd:string ;
        crnd-attribute:denominator  "_NULL_" ;
        crnd-attribute:rowno        "87"^^xsd:string ;
        crnd-attribute:unit         "_NULL_"^^xsd:string ;
        crnd-dimension:aedecod      code:aedecod-SUDDEN_DEATH ;
        crnd-dimension:aesoc        code:aesoc-GENERAL_DISORDERS_AND_ADMINISTRATION_SITE_CONDITIONS ;
        crnd-dimension:factor       code:factor-USUBJID ;
        crnd-dimension:procedure    code:procedure-countdistinct ;
        crnd-dimension:saffl        code:saffl-Y ;
        crnd-dimension:trta         code:trta-_ALL_ ;
        crnd-measure:measure        "1"^^xsd:double .

ds:obs0486  a                       qb:Observation ;
        rdfs:comment                "Statistic for number of records/Statistics for factor with the dimensions XX"@en ;
        rdfs:label                  "486"^^xsd:string ;
        qb:dataSet                  ds:dataset-AE ;
        crnd-attribute:cellpartno   "2"^^xsd:string ;
        crnd-attribute:colno        "2"^^xsd:string ;
        crnd-attribute:denominator  "_NULL_" ;
        crnd-attribute:rowno        "189"^^xsd:string ;
        crnd-attribute:unit         "_NULL_"^^xsd:string ;
        crnd-dimension:aedecod      code:aedecod-AGITATION ;
        crnd-dimension:aesoc        code:aesoc-PSYCHIATRIC_DISORDERS ;
        crnd-dimension:factor       code:factor-USUBJID ;
        crnd-dimension:procedure    code:procedure-countdistinct ;
        crnd-dimension:saffl        code:saffl-Y ;
        crnd-dimension:trta         code:trta-Xanomeline_High_Dose ;
        crnd-measure:measure        "1"^^xsd:double .

ds:obs1342  a                       qb:Observation ;
        rdfs:comment                "Statistic for number of records/Statistics for factor with the dimensions XX"@en ;
        rdfs:label                  "1342"^^xsd:string ;
        qb:dataSet                  ds:dataset-AE ;
        crnd-attribute:cellpartno   "2"^^xsd:string ;
        crnd-attribute:colno        "4"^^xsd:string ;
        crnd-attribute:denominator  "_NULL_" ;
        crnd-attribute:rowno        "234"^^xsd:string ;
        crnd-attribute:unit         "_NULL_"^^xsd:string ;
        crnd-dimension:aedecod      code:aedecod-ALOPECIA ;
        crnd-dimension:aesoc        code:aesoc-SKIN_AND_SUBCUTANEOUS_TISSUE_DISORDERS ;
        crnd-dimension:factor       code:factor-USUBJID ;
        crnd-dimension:procedure    code:procedure-countdistinct ;
        crnd-dimension:saffl        code:saffl-Y ;
        crnd-dimension:trta         code:trta-_ALL_ ;
        crnd-measure:measure        "1"^^xsd:double .

ds:obs0233  a                       qb:Observation ;
        rdfs:comment                "Statistic for number of records/Statistics for factor with the dimensions XX"@en ;
        rdfs:label                  "233"^^xsd:string ;
        qb:dataSet                  ds:dataset-AE ;
        crnd-attribute:cellpartno   "1"^^xsd:string ;
        crnd-attribute:colno        "1"^^xsd:string ;
        crnd-attribute:denominator  "_NULL_" ;
        crnd-attribute:rowno        "220"^^xsd:string ;
        crnd-attribute:unit         "_NULL_"^^xsd:string ;
        crnd-dimension:aedecod      code:aedecod-DYSPNOEA ;
        crnd-dimension:aesoc        code:aesoc-RESPIRATORY__THORACIC_AND_MEDIASTINAL_DISORDERS ;
        crnd-dimension:factor       code:factor-quantity ;
        crnd-dimension:procedure    code:procedure-count ;
        crnd-dimension:saffl        code:saffl-Y ;
        crnd-dimension:trta         code:trta-Placebo ;
        crnd-measure:measure        "1"^^xsd:double .

ds:obs0780  a                       qb:Observation ;
        rdfs:comment                "Statistic for number of records/Statistics for factor with the dimensions XX"@en ;
        rdfs:label                  "780"^^xsd:string ;
        qb:dataSet                  ds:dataset-AE ;
        crnd-attribute:cellpartno   "2"^^xsd:string ;
        crnd-attribute:colno        "3"^^xsd:string ;
        crnd-attribute:denominator  "_NULL_" ;
        crnd-attribute:rowno        "172"^^xsd:string ;
        crnd-attribute:unit         "_NULL_"^^xsd:string ;
        crnd-dimension:aedecod      code:aedecod-DIZZINESS ;
        crnd-dimension:aesoc        code:aesoc-NERVOUS_SYSTEM_DISORDERS ;
        crnd-dimension:factor       code:factor-USUBJID ;
        crnd-dimension:procedure    code:procedure-countdistinct ;
        crnd-dimension:saffl        code:saffl-Y ;
        crnd-dimension:trta         code:trta-Xanomeline_Low_Dose ;
        crnd-measure:measure        "8"^^xsd:double .

dccs:saffl  a         qb:ComponentSpecification ;
        rdfs:label    "Safety Population Flag" ;
        qb:dimension  crnd-dimension:saffl .

ds:obs0958  a                       qb:Observation ;
        rdfs:comment                "Statistic for number of records/Statistics for factor with the dimensions XX"@en ;
        rdfs:label                  "958"^^xsd:string ;
        qb:dataSet                  ds:dataset-AE ;
        crnd-attribute:cellpartno   "2"^^xsd:string ;
        crnd-attribute:colno        "4"^^xsd:string ;
        crnd-attribute:denominator  "_NULL_" ;
        crnd-attribute:rowno        "42"^^xsd:string ;
        crnd-attribute:unit         "_NULL_"^^xsd:string ;
        crnd-dimension:aedecod      code:aedecod-DIARRHOEA ;
        crnd-dimension:aesoc        code:aesoc-GASTROINTESTINAL_DISORDERS ;
        crnd-dimension:factor       code:factor-USUBJID ;
        crnd-dimension:procedure    code:procedure-countdistinct ;
        crnd-dimension:saffl        code:saffl-Y ;
        crnd-dimension:trta         code:trta-_ALL_ ;
        crnd-measure:measure        "18"^^xsd:double .

code:aedecod-_NONMISS_
        a                  code:Aedecod , skos:Concept ;
        rdfs:comment       "NON-CDISC: Represents the non-missing codelist categories. Does not include missing values."@en ;
        rrdfqbcrnd0:R-selectionfunction
                "is.na"^^xsd:string ;
        skos:inScheme      code:aedecod ;
        skos:prefLabel     "_NONMISS_"^^xsd:string ;
        skos:topConceptOf  code:aedecod .

ds:obs0705  a                       qb:Observation ;
        rdfs:comment                "Statistic for number of records/Statistics for factor with the dimensions XX"@en ;
        rdfs:label                  "705"^^xsd:string ;
        qb:dataSet                  ds:dataset-AE ;
        crnd-attribute:cellpartno   "1"^^xsd:string ;
        crnd-attribute:colno        "3"^^xsd:string ;
        crnd-attribute:denominator  "_NULL_" ;
        crnd-attribute:rowno        "106"^^xsd:string ;
        crnd-attribute:unit         "_NULL_"^^xsd:string ;
        crnd-dimension:aedecod      code:aedecod-NASOPHARYNGITIS ;
        crnd-dimension:aesoc        code:aesoc-INFECTIONS_AND_INFESTATIONS ;
        crnd-dimension:factor       code:factor-quantity ;
        crnd-dimension:procedure    code:procedure-count ;
        crnd-dimension:saffl        code:saffl-Y ;
        crnd-dimension:trta         code:trta-Xanomeline_Low_Dose ;
        crnd-measure:measure        "9"^^xsd:double .

code:aedecod-BLOOD_URINE_PRESENT
        a                             code:Aedecod , skos:Concept ;
        rdfs:comment                  "Coded values from data source. No reconciliation against another source"@en ;
        rrdfqbcrnd0:R-selectionoperator
                "=="^^xsd:string ;
        rrdfqbcrnd0:R-selectionvalue  "BLOOD URINE PRESENT"^^xsd:string ;
        skos:inScheme                 code:aedecod ;
        skos:prefLabel                "BLOOD URINE PRESENT"^^xsd:string ;
        skos:topConceptOf             code:aedecod .

code:aedecod-URINARY_TRACT_INFECTION
        a                             code:Aedecod , skos:Concept ;
        rdfs:comment                  "Coded values from data source. No reconciliation against another source"@en ;
        rrdfqbcrnd0:R-selectionoperator
                "=="^^xsd:string ;
        rrdfqbcrnd0:R-selectionvalue  "URINARY TRACT INFECTION"^^xsd:string ;
        skos:inScheme                 code:aedecod ;
        skos:prefLabel                "URINARY TRACT INFECTION"^^xsd:string ;
        skos:topConceptOf             code:aedecod .

ds:obs0499  a                       qb:Observation ;
        rdfs:comment                "Statistic for number of records/Statistics for factor with the dimensions XX"@en ;
        rdfs:label                  "499"^^xsd:string ;
        qb:dataSet                  ds:dataset-AE ;
        crnd-attribute:cellpartno   "1"^^xsd:string ;
        crnd-attribute:colno        "2"^^xsd:string ;
        crnd-attribute:denominator  "_NULL_" ;
        crnd-attribute:rowno        "199"^^xsd:string ;
        crnd-attribute:unit         "_NULL_"^^xsd:string ;
        crnd-dimension:aedecod      code:aedecod-INSOMNIA ;
        crnd-dimension:aesoc        code:aesoc-PSYCHIATRIC_DISORDERS ;
        crnd-dimension:factor       code:factor-quantity ;
        crnd-dimension:procedure    code:procedure-count ;
        crnd-dimension:saffl        code:saffl-Y ;
        crnd-dimension:trta         code:trta-Xanomeline_High_Dose ;
        crnd-measure:measure        "2"^^xsd:double .

ds:obs1355  a                       qb:Observation ;
        rdfs:comment                "Statistic for number of records/Statistics for factor with the dimensions XX"@en ;
        rdfs:label                  "1355"^^xsd:string ;
        qb:dataSet                  ds:dataset-AE ;
        crnd-attribute:cellpartno   "1"^^xsd:string ;
        crnd-attribute:colno        "4"^^xsd:string ;
        crnd-attribute:denominator  "_NULL_" ;
        crnd-attribute:rowno        "241"^^xsd:string ;
        crnd-attribute:unit         "_NULL_"^^xsd:string ;
        crnd-dimension:aedecod      code:aedecod-HYPERHIDROSIS ;
        crnd-dimension:aesoc        code:aesoc-SKIN_AND_SUBCUTANEOUS_TISSUE_DISORDERS ;
        crnd-dimension:factor       code:factor-quantity ;
        crnd-dimension:procedure    code:procedure-count ;
        crnd-dimension:saffl        code:saffl-Y ;
        crnd-dimension:trta         code:trta-_ALL_ ;
        crnd-measure:measure        "17"^^xsd:double .

code:aedecod-RASH_MACULO-PAPULAR
        a                             code:Aedecod , skos:Concept ;
        rdfs:comment                  "Coded values from data source. No reconciliation against another source"@en ;
        rrdfqbcrnd0:R-selectionoperator
                "=="^^xsd:string ;
        rrdfqbcrnd0:R-selectionvalue  "RASH MACULO-PAPULAR"^^xsd:string ;
        skos:inScheme                 code:aedecod ;
        skos:prefLabel                "RASH MACULO-PAPULAR"^^xsd:string ;
        skos:topConceptOf             code:aedecod .

ds:obs0246  a                       qb:Observation ;
        rdfs:comment                "Statistic for number of records/Statistics for factor with the dimensions XX"@en ;
        rdfs:label                  "246"^^xsd:string ;
        qb:dataSet                  ds:dataset-AE ;
        crnd-attribute:cellpartno   "2"^^xsd:string ;
        crnd-attribute:colno        "1"^^xsd:string ;
        crnd-attribute:denominator  "_NULL_" ;
        crnd-attribute:rowno        "232"^^xsd:string ;
        crnd-attribute:unit         "_NULL_"^^xsd:string ;
        crnd-dimension:aedecod      code:aedecod-_ALL_ ;
        crnd-dimension:aesoc        code:aesoc-SKIN_AND_SUBCUTANEOUS_TISSUE_DISORDERS ;
        crnd-dimension:factor       code:factor-USUBJID ;
        crnd-dimension:procedure    code:procedure-countdistinct ;
        crnd-dimension:saffl        code:saffl-Y ;
        crnd-dimension:trta         code:trta-Placebo ;
        crnd-measure:measure        "21"^^xsd:double .

ds:obs0793  a                       qb:Observation ;
        rdfs:comment                "Statistic for number of records/Statistics for factor with the dimensions XX"@en ;
        rdfs:label                  "793"^^xsd:string ;
        qb:dataSet                  ds:dataset-AE ;
        crnd-attribute:cellpartno   "1"^^xsd:string ;
        crnd-attribute:colno        "3"^^xsd:string ;
        crnd-attribute:denominator  "_NULL_" ;
        crnd-attribute:rowno        "185"^^xsd:string ;
        crnd-attribute:unit         "_NULL_"^^xsd:string ;
        crnd-dimension:aedecod      code:aedecod-SYNCOPE ;
        crnd-dimension:aesoc        code:aesoc-NERVOUS_SYSTEM_DISORDERS ;
        crnd-dimension:factor       code:factor-quantity ;
        crnd-dimension:procedure    code:procedure-count ;
        crnd-dimension:saffl        code:saffl-Y ;
        crnd-dimension:trta         code:trta-Xanomeline_Low_Dose ;
        crnd-measure:measure        "6"^^xsd:double .

ds:obs1102  a                       qb:Observation ;
        rdfs:comment                "Statistic for number of records/Statistics for factor with the dimensions XX"@en ;
        rdfs:label                  "1102"^^xsd:string ;
        qb:dataSet                  ds:dataset-AE ;
        crnd-attribute:cellpartno   "2"^^xsd:string ;
        crnd-attribute:colno        "4"^^xsd:string ;
        crnd-attribute:denominator  "_NULL_" ;
        crnd-attribute:rowno        "114"^^xsd:string ;
        crnd-attribute:unit         "_NULL_"^^xsd:string ;
        crnd-dimension:aedecod      code:aedecod-_ALL_ ;
        crnd-dimension:aesoc        code:aesoc-INJURY__POISONING_AND_PROCEDURAL_COMPLICATIONS ;
        crnd-dimension:factor       code:factor-USUBJID ;
        crnd-dimension:procedure    code:procedure-countdistinct ;
        crnd-dimension:saffl        code:saffl-Y ;
        crnd-dimension:trta         code:trta-_ALL_ ;
        crnd-measure:measure        "14"^^xsd:double .

ds:obs0540  a                       qb:Observation ;
        rdfs:comment                "Statistic for number of records/Statistics for factor with the dimensions XX"@en ;
        rdfs:label                  "540"^^xsd:string ;
        qb:dataSet                  ds:dataset-AE ;
        crnd-attribute:cellpartno   "2"^^xsd:string ;
        crnd-attribute:colno        "2"^^xsd:string ;
        crnd-attribute:denominator  "_NULL_" ;
        crnd-attribute:rowno        "231"^^xsd:string ;
        crnd-attribute:unit         "_NULL_"^^xsd:string ;
        crnd-dimension:aedecod      code:aedecod-RHINORRHOEA ;
        crnd-dimension:aesoc        code:aesoc-RESPIRATORY__THORACIC_AND_MEDIASTINAL_DISORDERS ;
        crnd-dimension:factor       code:factor-USUBJID ;
        crnd-dimension:procedure    code:procedure-countdistinct ;
        crnd-dimension:saffl        code:saffl-Y ;
        crnd-dimension:trta         code:trta-Xanomeline_High_Dose ;
        crnd-measure:measure        "1"^^xsd:double .

ds:obs0718  a                       qb:Observation ;
        rdfs:comment                "Statistic for number of records/Statistics for factor with the dimensions XX"@en ;
        rdfs:label                  "718"^^xsd:string ;
        qb:dataSet                  ds:dataset-AE ;
        crnd-attribute:cellpartno   "2"^^xsd:string ;
        crnd-attribute:colno        "3"^^xsd:string ;
        crnd-attribute:denominator  "_NULL_" ;
        crnd-attribute:rowno        "115"^^xsd:string ;
        crnd-attribute:unit         "_NULL_"^^xsd:string ;
        crnd-dimension:aedecod      code:aedecod-CONTUSION ;
        crnd-dimension:aesoc        code:aesoc-INJURY__POISONING_AND_PROCEDURAL_COMPLICATIONS ;
        crnd-dimension:factor       code:factor-USUBJID ;
        crnd-dimension:procedure    code:procedure-countdistinct ;
        crnd-dimension:saffl        code:saffl-Y ;
        crnd-dimension:trta         code:trta-Xanomeline_Low_Dose ;
        crnd-measure:measure        "1"^^xsd:double .

ds:obs1190  a                       qb:Observation ;
        rdfs:comment                "Statistic for number of records/Statistics for factor with the dimensions XX"@en ;
        rdfs:label                  "1190"^^xsd:string ;
        qb:dataSet                  ds:dataset-AE ;
        crnd-attribute:cellpartno   "2"^^xsd:string ;
        crnd-attribute:colno        "4"^^xsd:string ;
        crnd-attribute:denominator  "_NULL_" ;
        crnd-attribute:rowno        "158"^^xsd:string ;
        crnd-attribute:unit         "_NULL_"^^xsd:string ;
        crnd-dimension:aedecod      code:aedecod-MYALGIA ;
        crnd-dimension:aesoc        code:aesoc-MUSCULOSKELETAL_AND_CONNECTIVE_TISSUE_DISORDERS ;
        crnd-dimension:factor       code:factor-USUBJID ;
        crnd-dimension:procedure    code:procedure-countdistinct ;
        crnd-dimension:saffl        code:saffl-Y ;
        crnd-dimension:trta         code:trta-_ALL_ ;
        crnd-measure:measure        "1"^^xsd:double .

ds:obs0081  a                       qb:Observation ;
        rdfs:comment                "Statistic for number of records/Statistics for factor with the dimensions XX"@en ;
        rdfs:label                  "81"^^xsd:string ;
        qb:dataSet                  ds:dataset-AE ;
        crnd-attribute:cellpartno   "1"^^xsd:string ;
        crnd-attribute:colno        "1"^^xsd:string ;
        crnd-attribute:denominator  "_NULL_" ;
        crnd-attribute:rowno        "66"^^xsd:string ;
        crnd-attribute:unit         "_NULL_"^^xsd:string ;
        crnd-dimension:aedecod      code:aedecod-APPLICATION_SITE_PRURITUS ;
        crnd-dimension:aesoc        code:aesoc-GENERAL_DISORDERS_AND_ADMINISTRATION_SITE_CONDITIONS ;
        crnd-dimension:factor       code:factor-quantity ;
        crnd-dimension:procedure    code:procedure-count ;
        crnd-dimension:saffl        code:saffl-Y ;
        crnd-dimension:trta         code:trta-Placebo ;
        crnd-measure:measure        "10"^^xsd:double .

ds:obs1368  a                       qb:Observation ;
        rdfs:comment                "Statistic for number of records/Statistics for factor with the dimensions XX"@en ;
        rdfs:label                  "1368"^^xsd:string ;
        qb:dataSet                  ds:dataset-AE ;
        crnd-attribute:cellpartno   "2"^^xsd:string ;
        crnd-attribute:colno        "4"^^xsd:string ;
        crnd-attribute:denominator  "_NULL_" ;
        crnd-attribute:rowno        "247"^^xsd:string ;
        crnd-attribute:unit         "_NULL_"^^xsd:string ;
        crnd-dimension:aedecod      code:aedecod-RASH_PAPULAR ;
        crnd-dimension:aesoc        code:aesoc-SKIN_AND_SUBCUTANEOUS_TISSUE_DISORDERS ;
        crnd-dimension:factor       code:factor-USUBJID ;
        crnd-dimension:procedure    code:procedure-countdistinct ;
        crnd-dimension:saffl        code:saffl-Y ;
        crnd-dimension:trta         code:trta-_ALL_ ;
        crnd-measure:measure        "1"^^xsd:double .

code:aesoc-RESPIRATORY__THORACIC_AND_MEDIASTINAL_DISORDERS
        a                             code:Aesoc , skos:Concept ;
        rdfs:comment                  "Coded values from data source. No reconciliation against another source"@en ;
        rrdfqbcrnd0:R-selectionoperator
                "=="^^xsd:string ;
        rrdfqbcrnd0:R-selectionvalue  "RESPIRATORY, THORACIC AND MEDIASTINAL DISORDERS"^^xsd:string ;
        skos:inScheme                 code:aesoc ;
        skos:prefLabel                "RESPIRATORY, THORACIC AND MEDIASTINAL DISORDERS"^^xsd:string ;
        skos:topConceptOf             code:aesoc .

code:aedecod-APPLICATION_SITE_DERMATITIS
        a                             code:Aedecod , skos:Concept ;
        rdfs:comment                  "Coded values from data source. No reconciliation against another source"@en ;
        rrdfqbcrnd0:R-selectionoperator
                "=="^^xsd:string ;
        rrdfqbcrnd0:R-selectionvalue  "APPLICATION SITE DERMATITIS"^^xsd:string ;
        skos:inScheme                 code:aedecod ;
        skos:prefLabel                "APPLICATION SITE DERMATITIS"^^xsd:string ;
        skos:topConceptOf             code:aedecod .

ds:obs0259  a                       qb:Observation ;
        rdfs:comment                "Statistic for number of records/Statistics for factor with the dimensions XX"@en ;
        rdfs:label                  "259"^^xsd:string ;
        qb:dataSet                  ds:dataset-AE ;
        crnd-attribute:cellpartno   "1"^^xsd:string ;
        crnd-attribute:colno        "1"^^xsd:string ;
        crnd-attribute:denominator  "_NULL_" ;
        crnd-attribute:rowno        "242"^^xsd:string ;
        crnd-attribute:unit         "_NULL_"^^xsd:string ;
        crnd-dimension:aedecod      code:aedecod-PRURITUS ;
        crnd-dimension:aesoc        code:aesoc-SKIN_AND_SUBCUTANEOUS_TISSUE_DISORDERS ;
        crnd-dimension:factor       code:factor-quantity ;
        crnd-dimension:procedure    code:procedure-count ;
        crnd-dimension:saffl        code:saffl-Y ;
        crnd-dimension:trta         code:trta-Placebo ;
        crnd-measure:measure        "11"^^xsd:double .

ds:obs1115  a                       qb:Observation ;
        rdfs:comment                "Statistic for number of records/Statistics for factor with the dimensions XX"@en ;
        rdfs:label                  "1115"^^xsd:string ;
        qb:dataSet                  ds:dataset-AE ;
        crnd-attribute:cellpartno   "1"^^xsd:string ;
        crnd-attribute:colno        "4"^^xsd:string ;
        crnd-attribute:denominator  "_NULL_" ;
        crnd-attribute:rowno        "121"^^xsd:string ;
        crnd-attribute:unit         "_NULL_"^^xsd:string ;
        crnd-dimension:aedecod      code:aedecod-SKIN_LACERATION ;
        crnd-dimension:aesoc        code:aesoc-INJURY__POISONING_AND_PROCEDURAL_COMPLICATIONS ;
        crnd-dimension:factor       code:factor-quantity ;
        crnd-dimension:procedure    code:procedure-count ;
        crnd-dimension:saffl        code:saffl-Y ;
        crnd-dimension:trta         code:trta-_ALL_ ;
        crnd-measure:measure        "3"^^xsd:double .

ds:obs0006  a                       qb:Observation ;
        rdfs:comment                "Statistic for number of records/Statistics for factor with the dimensions XX"@en ;
        rdfs:label                  "6"^^xsd:string ;
        qb:dataSet                  ds:dataset-AE ;
        crnd-attribute:cellpartno   "2"^^xsd:string ;
        crnd-attribute:colno        "1"^^xsd:string ;
        crnd-attribute:denominator  "_NULL_" ;
        crnd-attribute:rowno        "3"^^xsd:string ;
        crnd-attribute:unit         "_NULL_"^^xsd:string ;
        crnd-dimension:aedecod      code:aedecod-ATRIAL_FIBRILLATION ;
        crnd-dimension:aesoc        code:aesoc-CARDIAC_DISORDERS ;
        crnd-dimension:factor       code:factor-USUBJID ;
        crnd-dimension:procedure    code:procedure-countdistinct ;
        crnd-dimension:saffl        code:saffl-Y ;
        crnd-dimension:trta         code:trta-Placebo ;
        crnd-measure:measure        "1"^^xsd:double .

ds:obs0553  a                       qb:Observation ;
        rdfs:comment                "Statistic for number of records/Statistics for factor with the dimensions XX"@en ;
        rdfs:label                  "553"^^xsd:string ;
        qb:dataSet                  ds:dataset-AE ;
        crnd-attribute:cellpartno   "1"^^xsd:string ;
        crnd-attribute:colno        "2"^^xsd:string ;
        crnd-attribute:denominator  "_NULL_" ;
        crnd-attribute:rowno        "243"^^xsd:string ;
        crnd-attribute:unit         "_NULL_"^^xsd:string ;
        crnd-dimension:aedecod      code:aedecod-PRURITUS_GENERALISED ;
        crnd-dimension:aesoc        code:aesoc-SKIN_AND_SUBCUTANEOUS_TISSUE_DISORDERS ;
        crnd-dimension:factor       code:factor-quantity ;
        crnd-dimension:procedure    code:procedure-count ;
        crnd-dimension:saffl        code:saffl-Y ;
        crnd-dimension:trta         code:trta-Xanomeline_High_Dose ;
        crnd-measure:measure        "1"^^xsd:double .

ds:obs0300  a                       qb:Observation ;
        rdfs:comment                "Statistic for number of records/Statistics for factor with the dimensions XX"@en ;
        rdfs:label                  "300"^^xsd:string ;
        qb:dataSet                  ds:dataset-AE ;
        crnd-attribute:cellpartno   "2"^^xsd:string ;
        crnd-attribute:colno        "2"^^xsd:string ;
        crnd-attribute:denominator  "_NULL_" ;
        crnd-attribute:rowno        "20"^^xsd:string ;
        crnd-attribute:unit         "_NULL_"^^xsd:string ;
        crnd-dimension:aedecod      code:aedecod-VENTRICULAR_EXTRASYSTOLES ;
        crnd-dimension:aesoc        code:aesoc-CARDIAC_DISORDERS ;
        crnd-dimension:factor       code:factor-USUBJID ;
        crnd-dimension:procedure    code:procedure-countdistinct ;
        crnd-dimension:saffl        code:saffl-Y ;
        crnd-dimension:trta         code:trta-Xanomeline_High_Dose ;
        crnd-measure:measure        "1"^^xsd:double .

ds:obs0094  a                       qb:Observation ;
        rdfs:comment                "Statistic for number of records/Statistics for factor with the dimensions XX"@en ;
        rdfs:label                  "94"^^xsd:string ;
        qb:dataSet                  ds:dataset-AE ;
        crnd-attribute:cellpartno   "2"^^xsd:string ;
        crnd-attribute:colno        "1"^^xsd:string ;
        crnd-attribute:denominator  "_NULL_" ;
        crnd-attribute:rowno        "83"^^xsd:string ;
        crnd-attribute:unit         "_NULL_"^^xsd:string ;
        crnd-dimension:aedecod      code:aedecod-OEDEMA_PERIPHERAL ;
        crnd-dimension:aesoc        code:aesoc-GENERAL_DISORDERS_AND_ADMINISTRATION_SITE_CONDITIONS ;
        crnd-dimension:factor       code:factor-USUBJID ;
        crnd-dimension:procedure    code:procedure-countdistinct ;
        crnd-dimension:saffl        code:saffl-Y ;
        crnd-dimension:trta         code:trta-Placebo ;
        crnd-measure:measure        "2"^^xsd:double .

ds:obs1128  a                       qb:Observation ;
        rdfs:comment                "Statistic for number of records/Statistics for factor with the dimensions XX"@en ;
        rdfs:label                  "1128"^^xsd:string ;
        qb:dataSet                  ds:dataset-AE ;
        crnd-attribute:cellpartno   "2"^^xsd:string ;
        crnd-attribute:colno        "4"^^xsd:string ;
        crnd-attribute:denominator  "_NULL_" ;
        crnd-attribute:rowno        "127"^^xsd:string ;
        crnd-attribute:unit         "_NULL_"^^xsd:string ;
        crnd-dimension:aedecod      code:aedecod-BLOOD_CHOLESTEROL_INCREASED ;
        crnd-dimension:aesoc        code:aesoc-INVESTIGATIONS ;
        crnd-dimension:factor       code:factor-USUBJID ;
        crnd-dimension:procedure    code:procedure-countdistinct ;
        crnd-dimension:saffl        code:saffl-Y ;
        crnd-dimension:trta         code:trta-_ALL_ ;
        crnd-measure:measure        "1"^^xsd:double .

ds:obs0019  a                       qb:Observation ;
        rdfs:comment                "Statistic for number of records/Statistics for factor with the dimensions XX"@en ;
        rdfs:label                  "19"^^xsd:string ;
        qb:dataSet                  ds:dataset-AE ;
        crnd-attribute:cellpartno   "1"^^xsd:string ;
        crnd-attribute:colno        "1"^^xsd:string ;
        crnd-attribute:denominator  "_NULL_" ;
        crnd-attribute:rowno        "12"^^xsd:string ;
        crnd-attribute:unit         "_NULL_"^^xsd:string ;
        crnd-dimension:aedecod      code:aedecod-CARDIAC_FAILURE_CONGESTIVE ;
        crnd-dimension:aesoc        code:aesoc-CARDIAC_DISORDERS ;
        crnd-dimension:factor       code:factor-quantity ;
        crnd-dimension:procedure    code:procedure-count ;
        crnd-dimension:saffl        code:saffl-Y ;
        crnd-dimension:trta         code:trta-Placebo ;
        crnd-measure:measure        "1"^^xsd:double .

ds:obs0566  a                       qb:Observation ;
        rdfs:comment                "Statistic for number of records/Statistics for factor with the dimensions XX"@en ;
        rdfs:label                  "566"^^xsd:string ;
        qb:dataSet                  ds:dataset-AE ;
        crnd-attribute:cellpartno   "2"^^xsd:string ;
        crnd-attribute:colno        "2"^^xsd:string ;
        crnd-attribute:denominator  "_NULL_" ;
        crnd-attribute:rowno        "251"^^xsd:string ;
        crnd-attribute:unit         "_NULL_"^^xsd:string ;
        crnd-dimension:aedecod      code:aedecod-SKIN_ODOUR_ABNORMAL ;
        crnd-dimension:aesoc        code:aesoc-SKIN_AND_SUBCUTANEOUS_TISSUE_DISORDERS ;
        crnd-dimension:factor       code:factor-USUBJID ;
        crnd-dimension:procedure    code:procedure-countdistinct ;
        crnd-dimension:saffl        code:saffl-Y ;
        crnd-dimension:trta         code:trta-Xanomeline_High_Dose ;
        crnd-measure:measure        "1"^^xsd:double .

crnd-dimension:aedecod
        a            rdf:Property , qb:CodedProperty , qb:DimensionProperty ;
        rdfs:label   "Preferred Term" ;
        rdfs:range   code:Aedecod ;
        qb:codeList  code:aedecod .

ds:obs0313  a                       qb:Observation ;
        rdfs:comment                "Statistic for number of records/Statistics for factor with the dimensions XX"@en ;
        rdfs:label                  "313"^^xsd:string ;
        qb:dataSet                  ds:dataset-AE ;
        crnd-attribute:cellpartno   "1"^^xsd:string ;
        crnd-attribute:colno        "2"^^xsd:string ;
        crnd-attribute:denominator  "_NULL_" ;
        crnd-attribute:rowno        "38"^^xsd:string ;
        crnd-attribute:unit         "_NULL_"^^xsd:string ;
        crnd-dimension:aedecod      code:aedecod-_ALL_ ;
        crnd-dimension:aesoc        code:aesoc-GASTROINTESTINAL_DISORDERS ;
        crnd-dimension:factor       code:factor-quantity ;
        crnd-dimension:procedure    code:procedure-count ;
        crnd-dimension:saffl        code:saffl-Y ;
        crnd-dimension:trta         code:trta-Xanomeline_High_Dose ;
        crnd-measure:measure        "37"^^xsd:double .

ds:obs0860  a                       qb:Observation ;
        rdfs:comment                "Statistic for number of records/Statistics for factor with the dimensions XX"@en ;
        rdfs:label                  "860"^^xsd:string ;
        qb:dataSet                  ds:dataset-AE ;
        crnd-attribute:cellpartno   "2"^^xsd:string ;
        crnd-attribute:colno        "3"^^xsd:string ;
        crnd-attribute:denominator  "_NULL_" ;
        crnd-attribute:rowno        "250"^^xsd:string ;
        crnd-attribute:unit         "_NULL_"^^xsd:string ;
        crnd-dimension:aedecod      code:aedecod-SKIN_IRRITATION ;
        crnd-dimension:aesoc        code:aesoc-SKIN_AND_SUBCUTANEOUS_TISSUE_DISORDERS ;
        crnd-dimension:factor       code:factor-USUBJID ;
        crnd-dimension:procedure    code:procedure-countdistinct ;
        crnd-dimension:saffl        code:saffl-Y ;
        crnd-dimension:trta         code:trta-Xanomeline_Low_Dose ;
        crnd-measure:measure        "6"^^xsd:double .

code:aesoc-NERVOUS_SYSTEM_DISORDERS
        a                             code:Aesoc , skos:Concept ;
        rdfs:comment                  "Coded values from data source. No reconciliation against another source"@en ;
        rrdfqbcrnd0:R-selectionoperator
                "=="^^xsd:string ;
        rrdfqbcrnd0:R-selectionvalue  "NERVOUS SYSTEM DISORDERS"^^xsd:string ;
        skos:inScheme                 code:aesoc ;
        skos:prefLabel                "NERVOUS SYSTEM DISORDERS"^^xsd:string ;
        skos:topConceptOf             code:aesoc .

code:aedecod-ERYTHEMA
        a                             code:Aedecod , skos:Concept ;
        rdfs:comment                  "Coded values from data source. No reconciliation against another source"@en ;
        rrdfqbcrnd0:R-selectionoperator
                "=="^^xsd:string ;
        rrdfqbcrnd0:R-selectionvalue  "ERYTHEMA"^^xsd:string ;
        skos:inScheme                 code:aedecod ;
        skos:prefLabel                "ERYTHEMA"^^xsd:string ;
        skos:topConceptOf             code:aedecod .

ds:obs0579  a                       qb:Observation ;
        rdfs:comment                "Statistic for number of records/Statistics for factor with the dimensions XX"@en ;
        rdfs:label                  "579"^^xsd:string ;
        qb:dataSet                  ds:dataset-AE ;
        crnd-attribute:cellpartno   "1"^^xsd:string ;
        crnd-attribute:colno        "2"^^xsd:string ;
        crnd-attribute:denominator  "_NULL_" ;
        crnd-attribute:rowno        "261"^^xsd:string ;
        crnd-attribute:unit         "_NULL_"^^xsd:string ;
        crnd-dimension:aedecod      code:aedecod-_ALL_ ;
        crnd-dimension:aesoc        code:aesoc-VASCULAR_DISORDERS ;
        crnd-dimension:factor       code:factor-quantity ;
        crnd-dimension:procedure    code:procedure-count ;
        crnd-dimension:saffl        code:saffl-Y ;
        crnd-dimension:trta         code:trta-Xanomeline_High_Dose ;
        crnd-measure:measure        "3"^^xsd:double .

ds:obs0326  a                       qb:Observation ;
        rdfs:comment                "Statistic for number of records/Statistics for factor with the dimensions XX"@en ;
        rdfs:label                  "326"^^xsd:string ;
        qb:dataSet                  ds:dataset-AE ;
        crnd-attribute:cellpartno   "2"^^xsd:string ;
        crnd-attribute:colno        "2"^^xsd:string ;
        crnd-attribute:denominator  "_NULL_" ;
        crnd-attribute:rowno        "50"^^xsd:string ;
        crnd-attribute:unit         "_NULL_"^^xsd:string ;
        crnd-dimension:aedecod      code:aedecod-NAUSEA ;
        crnd-dimension:aesoc        code:aesoc-GASTROINTESTINAL_DISORDERS ;
        crnd-dimension:factor       code:factor-USUBJID ;
        crnd-dimension:procedure    code:procedure-countdistinct ;
        crnd-dimension:saffl        code:saffl-Y ;
        crnd-dimension:trta         code:trta-Xanomeline_High_Dose ;
        crnd-measure:measure        "6"^^xsd:double .

ds:obs0873  a                       qb:Observation ;
        rdfs:comment                "Statistic for number of records/Statistics for factor with the dimensions XX"@en ;
        rdfs:label                  "873"^^xsd:string ;
        qb:dataSet                  ds:dataset-AE ;
        crnd-attribute:cellpartno   "1"^^xsd:string ;
        crnd-attribute:colno        "3"^^xsd:string ;
        crnd-attribute:denominator  "_NULL_" ;
        crnd-attribute:rowno        "264"^^xsd:string ;
        crnd-attribute:unit         "_NULL_"^^xsd:string ;
        crnd-dimension:aedecod      code:aedecod-HYPOTENSION ;
        crnd-dimension:aesoc        code:aesoc-VASCULAR_DISORDERS ;
        crnd-dimension:factor       code:factor-quantity ;
        crnd-dimension:procedure    code:procedure-count ;
        crnd-dimension:saffl        code:saffl-Y ;
        crnd-dimension:trta         code:trta-Xanomeline_Low_Dose ;
        crnd-measure:measure        "1"^^xsd:double .

crnd-dimension:procedure
        a            rdf:Property , qb:CodedProperty , qb:DimensionProperty ;
        rdfs:label   "Statistical Procedure" ;
        rdfs:range   code:Procedure ;
        qb:codeList  code:procedure .

ds:obs0620  a                       qb:Observation ;
        rdfs:comment                "Statistic for number of records/Statistics for factor with the dimensions XX"@en ;
        rdfs:label                  "620"^^xsd:string ;
        qb:dataSet                  ds:dataset-AE ;
        crnd-attribute:cellpartno   "2"^^xsd:string ;
        crnd-attribute:colno        "3"^^xsd:string ;
        crnd-attribute:denominator  "_NULL_" ;
        crnd-attribute:rowno        "28"^^xsd:string ;
        crnd-attribute:unit         "_NULL_"^^xsd:string ;
        crnd-dimension:aedecod      code:aedecod-TINNITUS ;
        crnd-dimension:aesoc        code:aesoc-EAR_AND_LABYRINTH_DISORDERS ;
        crnd-dimension:factor       code:factor-USUBJID ;
        crnd-dimension:procedure    code:procedure-countdistinct ;
        crnd-dimension:saffl        code:saffl-Y ;
        crnd-dimension:trta         code:trta-Xanomeline_Low_Dose ;
        crnd-measure:measure        "1"^^xsd:double .

code:aesoc-CONGENITAL__FAMILIAL_AND_GENETIC_DISORDERS
        a                             code:Aesoc , skos:Concept ;
        rdfs:comment                  "Coded values from data source. No reconciliation against another source"@en ;
        rrdfqbcrnd0:R-selectionoperator
                "=="^^xsd:string ;
        rrdfqbcrnd0:R-selectionvalue  "CONGENITAL, FAMILIAL AND GENETIC DISORDERS"^^xsd:string ;
        skos:inScheme                 code:aesoc ;
        skos:prefLabel                "CONGENITAL, FAMILIAL AND GENETIC DISORDERS"^^xsd:string ;
        skos:topConceptOf             code:aesoc .

ds:obs1270  a                       qb:Observation ;
        rdfs:comment                "Statistic for number of records/Statistics for factor with the dimensions XX"@en ;
        rdfs:label                  "1270"^^xsd:string ;
        qb:dataSet                  ds:dataset-AE ;
        crnd-attribute:cellpartno   "2"^^xsd:string ;
        crnd-attribute:colno        "4"^^xsd:string ;
        crnd-attribute:denominator  "_NULL_" ;
        crnd-attribute:rowno        "198"^^xsd:string ;
        crnd-attribute:unit         "_NULL_"^^xsd:string ;
        crnd-dimension:aedecod      code:aedecod-HALLUCINATION__VISUAL ;
        crnd-dimension:aesoc        code:aesoc-PSYCHIATRIC_DISORDERS ;
        crnd-dimension:factor       code:factor-USUBJID ;
        crnd-dimension:procedure    code:procedure-countdistinct ;
        crnd-dimension:saffl        code:saffl-Y ;
        crnd-dimension:trta         code:trta-_ALL_ ;
        crnd-measure:measure        "1"^^xsd:double .

code:aedecod-ELECTROCARDIOGRAM_T_WAVE_AMPLITUDE_DECREASED
        a                             code:Aedecod , skos:Concept ;
        rdfs:comment                  "Coded values from data source. No reconciliation against another source"@en ;
        rrdfqbcrnd0:R-selectionoperator
                "=="^^xsd:string ;
        rrdfqbcrnd0:R-selectionvalue  "ELECTROCARDIOGRAM T WAVE AMPLITUDE DECREASED"^^xsd:string ;
        skos:inScheme                 code:aedecod ;
        skos:prefLabel                "ELECTROCARDIOGRAM T WAVE AMPLITUDE DECREASED"^^xsd:string ;
        skos:topConceptOf             code:aedecod .

ds:obs0161  a                       qb:Observation ;
        rdfs:comment                "Statistic for number of records/Statistics for factor with the dimensions XX"@en ;
        rdfs:label                  "161"^^xsd:string ;
        qb:dataSet                  ds:dataset-AE ;
        crnd-attribute:cellpartno   "1"^^xsd:string ;
        crnd-attribute:colno        "1"^^xsd:string ;
        crnd-attribute:denominator  "_NULL_" ;
        crnd-attribute:rowno        "145"^^xsd:string ;
        crnd-attribute:unit         "_NULL_"^^xsd:string ;
        crnd-dimension:aedecod      code:aedecod-DEHYDRATION ;
        crnd-dimension:aesoc        code:aesoc-METABOLISM_AND_NUTRITION_DISORDERS ;
        crnd-dimension:factor       code:factor-quantity ;
        crnd-dimension:procedure    code:procedure-count ;
        crnd-dimension:saffl        code:saffl-Y ;
        crnd-dimension:trta         code:trta-Placebo ;
        crnd-measure:measure        "1"^^xsd:double .

ds:obs0339  a                       qb:Observation ;
        rdfs:comment                "Statistic for number of records/Statistics for factor with the dimensions XX"@en ;
        rdfs:label                  "339"^^xsd:string ;
        qb:dataSet                  ds:dataset-AE ;
        crnd-attribute:cellpartno   "1"^^xsd:string ;
        crnd-attribute:colno        "2"^^xsd:string ;
        crnd-attribute:denominator  "_NULL_" ;
        crnd-attribute:rowno        "61"^^xsd:string ;
        crnd-attribute:unit         "_NULL_"^^xsd:string ;
        crnd-dimension:aedecod      code:aedecod-APPLICATION_SITE_ERYTHEMA ;
        crnd-dimension:aesoc        code:aesoc-GENERAL_DISORDERS_AND_ADMINISTRATION_SITE_CONDITIONS ;
        crnd-dimension:factor       code:factor-quantity ;
        crnd-dimension:procedure    code:procedure-count ;
        crnd-dimension:saffl        code:saffl-Y ;
        crnd-dimension:trta         code:trta-Xanomeline_High_Dose ;
        crnd-measure:measure        "23"^^xsd:double .

ds:obs0886  a                       qb:Observation ;
        rdfs:comment                "Statistic for number of records/Statistics for factor with the dimensions XX"@en ;
        rdfs:label                  "886"^^xsd:string ;
        qb:dataSet                  ds:dataset-AE ;
        crnd-attribute:cellpartno   "2"^^xsd:string ;
        crnd-attribute:colno        "4"^^xsd:string ;
        crnd-attribute:denominator  "_NULL_" ;
        crnd-attribute:rowno        "6"^^xsd:string ;
        crnd-attribute:unit         "_NULL_"^^xsd:string ;
        crnd-dimension:aedecod      code:aedecod-ATRIOVENTRICULAR_BLOCK_FIRST_DEGREE ;
        crnd-dimension:aesoc        code:aesoc-CARDIAC_DISORDERS ;
        crnd-dimension:factor       code:factor-USUBJID ;
        crnd-dimension:procedure    code:procedure-countdistinct ;
        crnd-dimension:saffl        code:saffl-Y ;
        crnd-dimension:trta         code:trta-_ALL_ ;
        crnd-measure:measure        "2"^^xsd:double .

ds:obs0633  a                       qb:Observation ;
        rdfs:comment                "Statistic for number of records/Statistics for factor with the dimensions XX"@en ;
        rdfs:label                  "633"^^xsd:string ;
        qb:dataSet                  ds:dataset-AE ;
        crnd-attribute:cellpartno   "1"^^xsd:string ;
        crnd-attribute:colno        "3"^^xsd:string ;
        crnd-attribute:denominator  "_NULL_" ;
        crnd-attribute:rowno        "42"^^xsd:string ;
        crnd-attribute:unit         "_NULL_"^^xsd:string ;
        crnd-dimension:aedecod      code:aedecod-DIARRHOEA ;
        crnd-dimension:aesoc        code:aesoc-GASTROINTESTINAL_DISORDERS ;
        crnd-dimension:factor       code:factor-quantity ;
        crnd-dimension:procedure    code:procedure-count ;
        crnd-dimension:saffl        code:saffl-Y ;
        crnd-dimension:trta         code:trta-Xanomeline_Low_Dose ;
        crnd-measure:measure        "7"^^xsd:double .

ds:obs1283  a                       qb:Observation ;
        rdfs:comment                "Statistic for number of records/Statistics for factor with the dimensions XX"@en ;
        rdfs:label                  "1283"^^xsd:string ;
        qb:dataSet                  ds:dataset-AE ;
        crnd-attribute:cellpartno   "1"^^xsd:string ;
        crnd-attribute:colno        "4"^^xsd:string ;
        crnd-attribute:denominator  "_NULL_" ;
        crnd-attribute:rowno        "205"^^xsd:string ;
        crnd-attribute:unit         "_NULL_"^^xsd:string ;
        crnd-dimension:aedecod      code:aedecod-_ALL_ ;
        crnd-dimension:aesoc        code:aesoc-RENAL_AND_URINARY_DISORDERS ;
        crnd-dimension:factor       code:factor-quantity ;
        crnd-dimension:procedure    code:procedure-count ;
        crnd-dimension:saffl        code:saffl-Y ;
        crnd-dimension:trta         code:trta-_ALL_ ;
        crnd-measure:measure        "13"^^xsd:double .

ds:obs0174  a                       qb:Observation ;
        rdfs:comment                "Statistic for number of records/Statistics for factor with the dimensions XX"@en ;
        rdfs:label                  "174"^^xsd:string ;
        qb:dataSet                  ds:dataset-AE ;
        crnd-attribute:cellpartno   "2"^^xsd:string ;
        crnd-attribute:colno        "1"^^xsd:string ;
        crnd-attribute:denominator  "_NULL_" ;
        crnd-attribute:rowno        "152"^^xsd:string ;
        crnd-attribute:unit         "_NULL_"^^xsd:string ;
        crnd-dimension:aedecod      code:aedecod-ARTHRALGIA ;
        crnd-dimension:aesoc        code:aesoc-MUSCULOSKELETAL_AND_CONNECTIVE_TISSUE_DISORDERS ;
        crnd-dimension:factor       code:factor-USUBJID ;
        crnd-dimension:procedure    code:procedure-countdistinct ;
        crnd-dimension:saffl        code:saffl-Y ;
        crnd-dimension:trta         code:trta-Placebo ;
        crnd-measure:measure        "1"^^xsd:double .

ds:obs1030  a                       qb:Observation ;
        rdfs:comment                "Statistic for number of records/Statistics for factor with the dimensions XX"@en ;
        rdfs:label                  "1030"^^xsd:string ;
        qb:dataSet                  ds:dataset-AE ;
        crnd-attribute:cellpartno   "2"^^xsd:string ;
        crnd-attribute:colno        "4"^^xsd:string ;
        crnd-attribute:denominator  "_NULL_" ;
        crnd-attribute:rowno        "78"^^xsd:string ;
        crnd-attribute:unit         "_NULL_"^^xsd:string ;
        crnd-dimension:aedecod      code:aedecod-FEELING_ABNORMAL ;
        crnd-dimension:aesoc        code:aesoc-GENERAL_DISORDERS_AND_ADMINISTRATION_SITE_CONDITIONS ;
        crnd-dimension:factor       code:factor-USUBJID ;
        crnd-dimension:procedure    code:procedure-countdistinct ;
        crnd-dimension:saffl        code:saffl-Y ;
        crnd-dimension:trta         code:trta-_ALL_ ;
        crnd-measure:measure        "1"^^xsd:double .

code:aedecod-CARDIAC_DISORDER
        a                             code:Aedecod , skos:Concept ;
        rdfs:comment                  "Coded values from data source. No reconciliation against another source"@en ;
        rrdfqbcrnd0:R-selectionoperator
                "=="^^xsd:string ;
        rrdfqbcrnd0:R-selectionvalue  "CARDIAC DISORDER"^^xsd:string ;
        skos:inScheme                 code:aedecod ;
        skos:prefLabel                "CARDIAC DISORDER"^^xsd:string ;
        skos:topConceptOf             code:aedecod .

ds:obs0899  a                       qb:Observation ;
        rdfs:comment                "Statistic for number of records/Statistics for factor with the dimensions XX"@en ;
        rdfs:label                  "899"^^xsd:string ;
        qb:dataSet                  ds:dataset-AE ;
        crnd-attribute:cellpartno   "1"^^xsd:string ;
        crnd-attribute:colno        "4"^^xsd:string ;
        crnd-attribute:denominator  "_NULL_" ;
        crnd-attribute:rowno        "13"^^xsd:string ;
        crnd-attribute:unit         "_NULL_"^^xsd:string ;
        crnd-dimension:aedecod      code:aedecod-MYOCARDIAL_INFARCTION ;
        crnd-dimension:aesoc        code:aesoc-CARDIAC_DISORDERS ;
        crnd-dimension:factor       code:factor-quantity ;
        crnd-dimension:procedure    code:procedure-count ;
        crnd-dimension:saffl        code:saffl-Y ;
        crnd-dimension:trta         code:trta-_ALL_ ;
        crnd-measure:measure        "16"^^xsd:double .

ds:obs1208  a                       qb:Observation ;
        rdfs:comment                "Statistic for number of records/Statistics for factor with the dimensions XX"@en ;
        rdfs:label                  "1208"^^xsd:string ;
        qb:dataSet                  ds:dataset-AE ;
        crnd-attribute:cellpartno   "2"^^xsd:string ;
        crnd-attribute:colno        "4"^^xsd:string ;
        crnd-attribute:denominator  "_NULL_" ;
        crnd-attribute:rowno        "167"^^xsd:string ;
        crnd-attribute:unit         "_NULL_"^^xsd:string ;
        crnd-dimension:aedecod      code:aedecod-BALANCE_DISORDER ;
        crnd-dimension:aesoc        code:aesoc-NERVOUS_SYSTEM_DISORDERS ;
        crnd-dimension:factor       code:factor-USUBJID ;
        crnd-dimension:procedure    code:procedure-countdistinct ;
        crnd-dimension:saffl        code:saffl-Y ;
        crnd-dimension:trta         code:trta-_ALL_ ;
        crnd-measure:measure        "1"^^xsd:double .

ds:obs0646  a                       qb:Observation ;
        rdfs:comment                "Statistic for number of records/Statistics for factor with the dimensions XX"@en ;
        rdfs:label                  "646"^^xsd:string ;
        qb:dataSet                  ds:dataset-AE ;
        crnd-attribute:cellpartno   "2"^^xsd:string ;
        crnd-attribute:colno        "3"^^xsd:string ;
        crnd-attribute:denominator  "_NULL_" ;
        crnd-attribute:rowno        "55"^^xsd:string ;
        crnd-attribute:unit         "_NULL_"^^xsd:string ;
        crnd-dimension:aedecod      code:aedecod-_ALL_ ;
        crnd-dimension:aesoc        code:aesoc-GENERAL_DISORDERS_AND_ADMINISTRATION_SITE_CONDITIONS ;
        crnd-dimension:factor       code:factor-USUBJID ;
        crnd-dimension:procedure    code:procedure-countdistinct ;
        crnd-dimension:saffl        code:saffl-Y ;
        crnd-dimension:trta         code:trta-Xanomeline_Low_Dose ;
        crnd-measure:measure        "47"^^xsd:double .

ds:obs0940  a                       qb:Observation ;
        rdfs:comment                "Statistic for number of records/Statistics for factor with the dimensions XX"@en ;
        rdfs:label                  "940"^^xsd:string ;
        qb:dataSet                  ds:dataset-AE ;
        crnd-attribute:cellpartno   "2"^^xsd:string ;
        crnd-attribute:colno        "4"^^xsd:string ;
        crnd-attribute:denominator  "_NULL_" ;
        crnd-attribute:rowno        "33"^^xsd:string ;
        crnd-attribute:unit         "_NULL_"^^xsd:string ;
        crnd-dimension:aedecod      code:aedecod-EYE_ALLERGY ;
        crnd-dimension:aesoc        code:aesoc-EYE_DISORDERS ;
        crnd-dimension:factor       code:factor-USUBJID ;
        crnd-dimension:procedure    code:procedure-countdistinct ;
        crnd-dimension:saffl        code:saffl-Y ;
        crnd-dimension:trta         code:trta-_ALL_ ;
        crnd-measure:measure        "1"^^xsd:double .

ds:obs1296  a                       qb:Observation ;
        rdfs:comment                "Statistic for number of records/Statistics for factor with the dimensions XX"@en ;
        rdfs:label                  "1296"^^xsd:string ;
        qb:dataSet                  ds:dataset-AE ;
        crnd-attribute:cellpartno   "2"^^xsd:string ;
        crnd-attribute:colno        "4"^^xsd:string ;
        crnd-attribute:denominator  "_NULL_" ;
        crnd-attribute:rowno        "211"^^xsd:string ;
        crnd-attribute:unit         "_NULL_"^^xsd:string ;
        crnd-dimension:aedecod      code:aedecod-NEPHROLITHIASIS ;
        crnd-dimension:aesoc        code:aesoc-RENAL_AND_URINARY_DISORDERS ;
        crnd-dimension:factor       code:factor-USUBJID ;
        crnd-dimension:procedure    code:procedure-countdistinct ;
        crnd-dimension:saffl        code:saffl-Y ;
        crnd-dimension:trta         code:trta-_ALL_ ;
        crnd-measure:measure        "2"^^xsd:double .

ds:obs0187  a                       qb:Observation ;
        rdfs:comment                "Statistic for number of records/Statistics for factor with the dimensions XX"@en ;
        rdfs:label                  "187"^^xsd:string ;
        qb:dataSet                  ds:dataset-AE ;
        crnd-attribute:cellpartno   "1"^^xsd:string ;
        crnd-attribute:colno        "1"^^xsd:string ;
        crnd-attribute:denominator  "_NULL_" ;
        crnd-attribute:rowno        "173"^^xsd:string ;
        crnd-attribute:unit         "_NULL_"^^xsd:string ;
        crnd-dimension:aedecod      code:aedecod-HEADACHE ;
        crnd-dimension:aesoc        code:aesoc-NERVOUS_SYSTEM_DISORDERS ;
        crnd-dimension:factor       code:factor-quantity ;
        crnd-dimension:procedure    code:procedure-count ;
        crnd-dimension:saffl        code:saffl-Y ;
        crnd-dimension:trta         code:trta-Placebo ;
        crnd-measure:measure        "8"^^xsd:double .

ds:obs1043  a                       qb:Observation ;
        rdfs:comment                "Statistic for number of records/Statistics for factor with the dimensions XX"@en ;
        rdfs:label                  "1043"^^xsd:string ;
        qb:dataSet                  ds:dataset-AE ;
        crnd-attribute:cellpartno   "1"^^xsd:string ;
        crnd-attribute:colno        "4"^^xsd:string ;
        crnd-attribute:denominator  "_NULL_" ;
        crnd-attribute:rowno        "85"^^xsd:string ;
        crnd-attribute:unit         "_NULL_"^^xsd:string ;
        crnd-dimension:aedecod      code:aedecod-PYREXIA ;
        crnd-dimension:aesoc        code:aesoc-GENERAL_DISORDERS_AND_ADMINISTRATION_SITE_CONDITIONS ;
        crnd-dimension:factor       code:factor-quantity ;
        crnd-dimension:procedure    code:procedure-count ;
        crnd-dimension:saffl        code:saffl-Y ;
        crnd-dimension:trta         code:trta-_ALL_ ;
        crnd-measure:measure        "3"^^xsd:double .

ds:obs0481  a                       qb:Observation ;
        rdfs:comment                "Statistic for number of records/Statistics for factor with the dimensions XX"@en ;
        rdfs:label                  "481"^^xsd:string ;
        qb:dataSet                  ds:dataset-AE ;
        crnd-attribute:cellpartno   "1"^^xsd:string ;
        crnd-attribute:colno        "2"^^xsd:string ;
        crnd-attribute:denominator  "_NULL_" ;
        crnd-attribute:rowno        "187"^^xsd:string ;
        crnd-attribute:unit         "_NULL_"^^xsd:string ;
        crnd-dimension:aedecod      code:aedecod-TRANSIENT_ISCHAEMIC_ATTACK ;
        crnd-dimension:aesoc        code:aesoc-NERVOUS_SYSTEM_DISORDERS ;
        crnd-dimension:factor       code:factor-quantity ;
        crnd-dimension:procedure    code:procedure-count ;
        crnd-dimension:saffl        code:saffl-Y ;
        crnd-dimension:trta         code:trta-Xanomeline_High_Dose ;
        crnd-measure:measure        "1"^^xsd:double .

ds:obs0659  a                       qb:Observation ;
        rdfs:comment                "Statistic for number of records/Statistics for factor with the dimensions XX"@en ;
        rdfs:label                  "659"^^xsd:string ;
        qb:dataSet                  ds:dataset-AE ;
        crnd-attribute:cellpartno   "1"^^xsd:string ;
        crnd-attribute:colno        "3"^^xsd:string ;
        crnd-attribute:denominator  "_NULL_" ;
        crnd-attribute:rowno        "66"^^xsd:string ;
        crnd-attribute:unit         "_NULL_"^^xsd:string ;
        crnd-dimension:aedecod      code:aedecod-APPLICATION_SITE_PRURITUS ;
        crnd-dimension:aesoc        code:aesoc-GENERAL_DISORDERS_AND_ADMINISTRATION_SITE_CONDITIONS ;
        crnd-dimension:factor       code:factor-quantity ;
        crnd-dimension:procedure    code:procedure-count ;
        crnd-dimension:saffl        code:saffl-Y ;
        crnd-dimension:trta         code:trta-Xanomeline_Low_Dose ;
        crnd-measure:measure        "33"^^xsd:double .

ds:obs0953  a                       qb:Observation ;
        rdfs:comment                "Statistic for number of records/Statistics for factor with the dimensions XX"@en ;
        rdfs:label                  "953"^^xsd:string ;
        qb:dataSet                  ds:dataset-AE ;
        crnd-attribute:cellpartno   "1"^^xsd:string ;
        crnd-attribute:colno        "4"^^xsd:string ;
        crnd-attribute:denominator  "_NULL_" ;
        crnd-attribute:rowno        "40"^^xsd:string ;
        crnd-attribute:unit         "_NULL_"^^xsd:string ;
        crnd-dimension:aedecod      code:aedecod-ABDOMINAL_PAIN ;
        crnd-dimension:aesoc        code:aesoc-GASTROINTESTINAL_DISORDERS ;
        crnd-dimension:factor       code:factor-quantity ;
        crnd-dimension:procedure    code:procedure-count ;
        crnd-dimension:saffl        code:saffl-Y ;
        crnd-dimension:trta         code:trta-_ALL_ ;
        crnd-measure:measure        "6"^^xsd:double .

ds:obs0406  a                       qb:Observation ;
        rdfs:comment                "Statistic for number of records/Statistics for factor with the dimensions XX"@en ;
        rdfs:label                  "406"^^xsd:string ;
        qb:dataSet                  ds:dataset-AE ;
        crnd-attribute:cellpartno   "2"^^xsd:string ;
        crnd-attribute:colno        "2"^^xsd:string ;
        crnd-attribute:denominator  "_NULL_" ;
        crnd-attribute:rowno        "116"^^xsd:string ;
        crnd-attribute:unit         "_NULL_"^^xsd:string ;
        crnd-dimension:aedecod      code:aedecod-EXCORIATION ;
        crnd-dimension:aesoc        code:aesoc-INJURY__POISONING_AND_PROCEDURAL_COMPLICATIONS ;
        crnd-dimension:factor       code:factor-USUBJID ;
        crnd-dimension:procedure    code:procedure-countdistinct ;
        crnd-dimension:saffl        code:saffl-Y ;
        crnd-dimension:trta         code:trta-Xanomeline_High_Dose ;
        crnd-measure:measure        "1"^^xsd:double .

ds:obs0700  a                       qb:Observation ;
        rdfs:comment                "Statistic for number of records/Statistics for factor with the dimensions XX"@en ;
        rdfs:label                  "700"^^xsd:string ;
        qb:dataSet                  ds:dataset-AE ;
        crnd-attribute:cellpartno   "2"^^xsd:string ;
        crnd-attribute:colno        "3"^^xsd:string ;
        crnd-attribute:denominator  "_NULL_" ;
        crnd-attribute:rowno        "97"^^xsd:string ;
        crnd-attribute:unit         "_NULL_"^^xsd:string ;
        crnd-dimension:aedecod      code:aedecod-CELLULITIS ;
        crnd-dimension:aesoc        code:aesoc-INFECTIONS_AND_INFESTATIONS ;
        crnd-dimension:factor       code:factor-USUBJID ;
        crnd-dimension:procedure    code:procedure-countdistinct ;
        crnd-dimension:saffl        code:saffl-Y ;
        crnd-dimension:trta         code:trta-Xanomeline_Low_Dose ;
        crnd-measure:measure        "1"^^xsd:double .

ds:obs1056  a                       qb:Observation ;
        rdfs:comment                "Statistic for number of records/Statistics for factor with the dimensions XX"@en ;
        rdfs:label                  "1056"^^xsd:string ;
        qb:dataSet                  ds:dataset-AE ;
        crnd-attribute:cellpartno   "2"^^xsd:string ;
        crnd-attribute:colno        "4"^^xsd:string ;
        crnd-attribute:denominator  "_NULL_" ;
        crnd-attribute:rowno        "91"^^xsd:string ;
        crnd-attribute:unit         "_NULL_"^^xsd:string ;
        crnd-dimension:aedecod      code:aedecod-HYPERBILIRUBINAEMIA ;
        crnd-dimension:aesoc        code:aesoc-HEPATOBILIARY_DISORDERS ;
        crnd-dimension:factor       code:factor-USUBJID ;
        crnd-dimension:procedure    code:procedure-countdistinct ;
        crnd-dimension:saffl        code:saffl-Y ;
        crnd-dimension:trta         code:trta-_ALL_ ;
        crnd-measure:measure        "1"^^xsd:double .

ds:obs0494  a                       qb:Observation ;
        rdfs:comment                "Statistic for number of records/Statistics for factor with the dimensions XX"@en ;
        rdfs:label                  "494"^^xsd:string ;
        qb:dataSet                  ds:dataset-AE ;
        crnd-attribute:cellpartno   "2"^^xsd:string ;
        crnd-attribute:colno        "2"^^xsd:string ;
        crnd-attribute:denominator  "_NULL_" ;
        crnd-attribute:rowno        "195"^^xsd:string ;
        crnd-attribute:unit         "_NULL_"^^xsd:string ;
        crnd-dimension:aedecod      code:aedecod-DEPRESSED_MOOD ;
        crnd-dimension:aesoc        code:aesoc-PSYCHIATRIC_DISORDERS ;
        crnd-dimension:factor       code:factor-USUBJID ;
        crnd-dimension:procedure    code:procedure-countdistinct ;
        crnd-dimension:saffl        code:saffl-Y ;
        crnd-dimension:trta         code:trta-Xanomeline_High_Dose ;
        crnd-measure:measure        "1"^^xsd:double .

ds:obs1350  a                       qb:Observation ;
        rdfs:comment                "Statistic for number of records/Statistics for factor with the dimensions XX"@en ;
        rdfs:label                  "1350"^^xsd:string ;
        qb:dataSet                  ds:dataset-AE ;
        crnd-attribute:cellpartno   "2"^^xsd:string ;
        crnd-attribute:colno        "4"^^xsd:string ;
        crnd-attribute:denominator  "_NULL_" ;
        crnd-attribute:rowno        "238"^^xsd:string ;
        crnd-attribute:unit         "_NULL_"^^xsd:string ;
        crnd-dimension:aedecod      code:aedecod-DERMATITIS_CONTACT ;
        crnd-dimension:aesoc        code:aesoc-SKIN_AND_SUBCUTANEOUS_TISSUE_DISORDERS ;
        crnd-dimension:factor       code:factor-USUBJID ;
        crnd-dimension:procedure    code:procedure-countdistinct ;
        crnd-dimension:saffl        code:saffl-Y ;
        crnd-dimension:trta         code:trta-_ALL_ ;
        crnd-measure:measure        "1"^^xsd:double .

code:aedecod-BLOOD_CREATINE_PHOSPHOKINASE_INCREASED
        a                             code:Aedecod , skos:Concept ;
        rdfs:comment                  "Coded values from data source. No reconciliation against another source"@en ;
        rrdfqbcrnd0:R-selectionoperator
                "=="^^xsd:string ;
        rrdfqbcrnd0:R-selectionvalue  "BLOOD CREATINE PHOSPHOKINASE INCREASED"^^xsd:string ;
        skos:inScheme                 code:aedecod ;
        skos:prefLabel                "BLOOD CREATINE PHOSPHOKINASE INCREASED"^^xsd:string ;
        skos:topConceptOf             code:aedecod .

ds:obs0241  a                       qb:Observation ;
        rdfs:comment                "Statistic for number of records/Statistics for factor with the dimensions XX"@en ;
        rdfs:label                  "241"^^xsd:string ;
        qb:dataSet                  ds:dataset-AE ;
        crnd-attribute:cellpartno   "1"^^xsd:string ;
        crnd-attribute:colno        "1"^^xsd:string ;
        crnd-attribute:denominator  "_NULL_" ;
        crnd-attribute:rowno        "227"^^xsd:string ;
        crnd-attribute:unit         "_NULL_"^^xsd:string ;
        crnd-dimension:aedecod      code:aedecod-POSTNASAL_DRIP ;
        crnd-dimension:aesoc        code:aesoc-RESPIRATORY__THORACIC_AND_MEDIASTINAL_DISORDERS ;
        crnd-dimension:factor       code:factor-quantity ;
        crnd-dimension:procedure    code:procedure-count ;
        crnd-dimension:saffl        code:saffl-Y ;
        crnd-dimension:trta         code:trta-Placebo ;
        crnd-measure:measure        "2"^^xsd:double .

ds:obs0966  a                       qb:Observation ;
        rdfs:comment                "Statistic for number of records/Statistics for factor with the dimensions XX"@en ;
        rdfs:label                  "966"^^xsd:string ;
        qb:dataSet                  ds:dataset-AE ;
        crnd-attribute:cellpartno   "2"^^xsd:string ;
        crnd-attribute:colno        "4"^^xsd:string ;
        crnd-attribute:denominator  "_NULL_" ;
        crnd-attribute:rowno        "46"^^xsd:string ;
        crnd-attribute:unit         "_NULL_"^^xsd:string ;
        crnd-dimension:aedecod      code:aedecod-GASTROINTESTINAL_HAEMORRHAGE ;
        crnd-dimension:aesoc        code:aesoc-GASTROINTESTINAL_DISORDERS ;
        crnd-dimension:factor       code:factor-USUBJID ;
        crnd-dimension:procedure    code:procedure-countdistinct ;
        crnd-dimension:saffl        code:saffl-Y ;
        crnd-dimension:trta         code:trta-_ALL_ ;
        crnd-measure:measure        "1"^^xsd:double .

ds:obs0419  a                       qb:Observation ;
        rdfs:comment                "Statistic for number of records/Statistics for factor with the dimensions XX"@en ;
        rdfs:label                  "419"^^xsd:string ;
        qb:dataSet                  ds:dataset-AE ;
        crnd-attribute:cellpartno   "1"^^xsd:string ;
        crnd-attribute:colno        "2"^^xsd:string ;
        crnd-attribute:denominator  "_NULL_" ;
        crnd-attribute:rowno        "127"^^xsd:string ;
        crnd-attribute:unit         "_NULL_"^^xsd:string ;
        crnd-dimension:aedecod      code:aedecod-BLOOD_CHOLESTEROL_INCREASED ;
        crnd-dimension:aesoc        code:aesoc-INVESTIGATIONS ;
        crnd-dimension:factor       code:factor-quantity ;
        crnd-dimension:procedure    code:procedure-count ;
        crnd-dimension:saffl        code:saffl-Y ;
        crnd-dimension:trta         code:trta-Xanomeline_High_Dose ;
        crnd-measure:measure        "1"^^xsd:double .

code:aedecod-PRURITUS
        a                             code:Aedecod , skos:Concept ;
        rdfs:comment                  "Coded values from data source. No reconciliation against another source"@en ;
        rrdfqbcrnd0:R-selectionoperator
                "=="^^xsd:string ;
        rrdfqbcrnd0:R-selectionvalue  "PRURITUS"^^xsd:string ;
        skos:inScheme                 code:aedecod ;
        skos:prefLabel                "PRURITUS"^^xsd:string ;
        skos:topConceptOf             code:aedecod .

ds:obs0713  a                       qb:Observation ;
        rdfs:comment                "Statistic for number of records/Statistics for factor with the dimensions XX"@en ;
        rdfs:label                  "713"^^xsd:string ;
        qb:dataSet                  ds:dataset-AE ;
        crnd-attribute:cellpartno   "1"^^xsd:string ;
        crnd-attribute:colno        "3"^^xsd:string ;
        crnd-attribute:denominator  "_NULL_" ;
        crnd-attribute:rowno        "113"^^xsd:string ;
        crnd-attribute:unit         "_NULL_"^^xsd:string ;
        crnd-dimension:aedecod      code:aedecod-VIRAL_INFECTION ;
        crnd-dimension:aesoc        code:aesoc-INFECTIONS_AND_INFESTATIONS ;
        crnd-dimension:factor       code:factor-quantity ;
        crnd-dimension:procedure    code:procedure-count ;
        crnd-dimension:saffl        code:saffl-Y ;
        crnd-dimension:trta         code:trta-Xanomeline_Low_Dose ;
        crnd-measure:measure        "1"^^xsd:double .

ds:obs1069  a                       qb:Observation ;
        rdfs:comment                "Statistic for number of records/Statistics for factor with the dimensions XX"@en ;
        rdfs:label                  "1069"^^xsd:string ;
        qb:dataSet                  ds:dataset-AE ;
        crnd-attribute:cellpartno   "1"^^xsd:string ;
        crnd-attribute:colno        "4"^^xsd:string ;
        crnd-attribute:denominator  "_NULL_" ;
        crnd-attribute:rowno        "98"^^xsd:string ;
        crnd-attribute:unit         "_NULL_"^^xsd:string ;
        crnd-dimension:aedecod      code:aedecod-CERVICITIS ;
        crnd-dimension:aesoc        code:aesoc-INFECTIONS_AND_INFESTATIONS ;
        crnd-dimension:factor       code:factor-quantity ;
        crnd-dimension:procedure    code:procedure-count ;
        crnd-dimension:saffl        code:saffl-Y ;
        crnd-dimension:trta         code:trta-_ALL_ ;
        crnd-measure:measure        "2"^^xsd:double .

ds:obs1363  a                       qb:Observation ;
        rdfs:comment                "Statistic for number of records/Statistics for factor with the dimensions XX"@en ;
        rdfs:label                  "1363"^^xsd:string ;
        qb:dataSet                  ds:dataset-AE ;
        crnd-attribute:cellpartno   "1"^^xsd:string ;
        crnd-attribute:colno        "4"^^xsd:string ;
        crnd-attribute:denominator  "_NULL_" ;
        crnd-attribute:rowno        "245"^^xsd:string ;
        crnd-attribute:unit         "_NULL_"^^xsd:string ;
        crnd-dimension:aedecod      code:aedecod-RASH_ERYTHEMATOUS ;
        crnd-dimension:aesoc        code:aesoc-SKIN_AND_SUBCUTANEOUS_TISSUE_DISORDERS ;
        crnd-dimension:factor       code:factor-quantity ;
        crnd-dimension:procedure    code:procedure-count ;
        crnd-dimension:saffl        code:saffl-Y ;
        crnd-dimension:trta         code:trta-_ALL_ ;
        crnd-measure:measure        "2"^^xsd:double .

crnd-attribute:unit  a  rdf:Property , qb:AttributeProperty ;
        rdfs:label  "Unit of measure" .

code:aedecod-ANXIETY  a               code:Aedecod , skos:Concept ;
        rdfs:comment                  "Coded values from data source. No reconciliation against another source"@en ;
        rrdfqbcrnd0:R-selectionoperator
                "=="^^xsd:string ;
        rrdfqbcrnd0:R-selectionvalue  "ANXIETY"^^xsd:string ;
        skos:inScheme                 code:aedecod ;
        skos:prefLabel                "ANXIETY"^^xsd:string ;
        skos:topConceptOf             code:aedecod .

ds:obs0254  a                       qb:Observation ;
        rdfs:comment                "Statistic for number of records/Statistics for factor with the dimensions XX"@en ;
        rdfs:label                  "254"^^xsd:string ;
        qb:dataSet                  ds:dataset-AE ;
        crnd-attribute:cellpartno   "2"^^xsd:string ;
        crnd-attribute:colno        "1"^^xsd:string ;
        crnd-attribute:denominator  "_NULL_" ;
        crnd-attribute:rowno        "239"^^xsd:string ;
        crnd-attribute:unit         "_NULL_"^^xsd:string ;
        crnd-dimension:aedecod      code:aedecod-DRUG_ERUPTION ;
        crnd-dimension:aesoc        code:aesoc-SKIN_AND_SUBCUTANEOUS_TISSUE_DISORDERS ;
        crnd-dimension:factor       code:factor-USUBJID ;
        crnd-dimension:procedure    code:procedure-countdistinct ;
        crnd-dimension:saffl        code:saffl-Y ;
        crnd-dimension:trta         code:trta-Placebo ;
        crnd-measure:measure        "1"^^xsd:double .

ds:obs1110  a                       qb:Observation ;
        rdfs:comment                "Statistic for number of records/Statistics for factor with the dimensions XX"@en ;
        rdfs:label                  "1110"^^xsd:string ;
        qb:dataSet                  ds:dataset-AE ;
        crnd-attribute:cellpartno   "2"^^xsd:string ;
        crnd-attribute:colno        "4"^^xsd:string ;
        crnd-attribute:denominator  "_NULL_" ;
        crnd-attribute:rowno        "118"^^xsd:string ;
        crnd-attribute:unit         "_NULL_"^^xsd:string ;
        crnd-dimension:aedecod      code:aedecod-FALL ;
        crnd-dimension:aesoc        code:aesoc-INJURY__POISONING_AND_PROCEDURAL_COMPLICATIONS ;
        crnd-dimension:factor       code:factor-USUBJID ;
        crnd-dimension:procedure    code:procedure-countdistinct ;
        crnd-dimension:saffl        code:saffl-Y ;
        crnd-dimension:trta         code:trta-_ALL_ ;
        crnd-measure:measure        "4"^^xsd:double .

ds:obs0001  a                       qb:Observation ;
        rdfs:comment                "Statistic for number of records/Statistics for factor with the dimensions XX"@en ;
        rdfs:label                  "1"^^xsd:string ;
        qb:dataSet                  ds:dataset-AE ;
        crnd-attribute:cellpartno   "1"^^xsd:string ;
        crnd-attribute:colno        "1"^^xsd:string ;
        crnd-attribute:denominator  "_NULL_" ;
        crnd-attribute:rowno        "1"^^xsd:string ;
        crnd-attribute:unit         "_NULL_"^^xsd:string ;
        crnd-dimension:aedecod      code:aedecod-_ALL_ ;
        crnd-dimension:aesoc        code:aesoc-_ALL_ ;
        crnd-dimension:factor       code:factor-quantity ;
        crnd-dimension:procedure    code:procedure-count ;
        crnd-dimension:saffl        code:saffl-Y ;
        crnd-dimension:trta         code:trta-Placebo ;
        crnd-measure:measure        "301"^^xsd:double .

ds:obs0979  a                       qb:Observation ;
        rdfs:comment                "Statistic for number of records/Statistics for factor with the dimensions XX"@en ;
        rdfs:label                  "979"^^xsd:string ;
        qb:dataSet                  ds:dataset-AE ;
        crnd-attribute:cellpartno   "1"^^xsd:string ;
        crnd-attribute:colno        "4"^^xsd:string ;
        crnd-attribute:denominator  "_NULL_" ;
        crnd-attribute:rowno        "53"^^xsd:string ;
        crnd-attribute:unit         "_NULL_"^^xsd:string ;
        crnd-dimension:aedecod      code:aedecod-STOMACH_DISCOMFORT ;
        crnd-dimension:aesoc        code:aesoc-GASTROINTESTINAL_DISORDERS ;
        crnd-dimension:factor       code:factor-quantity ;
        crnd-dimension:procedure    code:procedure-count ;
        crnd-dimension:saffl        code:saffl-Y ;
        crnd-dimension:trta         code:trta-_ALL_ ;
        crnd-measure:measure        "1"^^xsd:double .

ds:obs0726  a                       qb:Observation ;
        rdfs:comment                "Statistic for number of records/Statistics for factor with the dimensions XX"@en ;
        rdfs:label                  "726"^^xsd:string ;
        qb:dataSet                  ds:dataset-AE ;
        crnd-attribute:cellpartno   "2"^^xsd:string ;
        crnd-attribute:colno        "3"^^xsd:string ;
        crnd-attribute:denominator  "_NULL_" ;
        crnd-attribute:rowno        "121"^^xsd:string ;
        crnd-attribute:unit         "_NULL_"^^xsd:string ;
        crnd-dimension:aedecod      code:aedecod-SKIN_LACERATION ;
        crnd-dimension:aesoc        code:aesoc-INJURY__POISONING_AND_PROCEDURAL_COMPLICATIONS ;
        crnd-dimension:factor       code:factor-USUBJID ;
        crnd-dimension:procedure    code:procedure-countdistinct ;
        crnd-dimension:saffl        code:saffl-Y ;
        crnd-dimension:trta         code:trta-Xanomeline_Low_Dose ;
        crnd-measure:measure        "2"^^xsd:double .

ds:obs1376  a                       qb:Observation ;
        rdfs:comment                "Statistic for number of records/Statistics for factor with the dimensions XX"@en ;
        rdfs:label                  "1376"^^xsd:string ;
        qb:dataSet                  ds:dataset-AE ;
        crnd-attribute:cellpartno   "2"^^xsd:string ;
        crnd-attribute:colno        "4"^^xsd:string ;
        crnd-attribute:denominator  "_NULL_" ;
        crnd-attribute:rowno        "251"^^xsd:string ;
        crnd-attribute:unit         "_NULL_"^^xsd:string ;
        crnd-dimension:aedecod      code:aedecod-SKIN_ODOUR_ABNORMAL ;
        crnd-dimension:aesoc        code:aesoc-SKIN_AND_SUBCUTANEOUS_TISSUE_DISORDERS ;
        crnd-dimension:factor       code:factor-USUBJID ;
        crnd-dimension:procedure    code:procedure-countdistinct ;
        crnd-dimension:saffl        code:saffl-Y ;
        crnd-dimension:trta         code:trta-_ALL_ ;
        crnd-measure:measure        "1"^^xsd:double .

ds:obs0267  a                       qb:Observation ;
        rdfs:comment                "Statistic for number of records/Statistics for factor with the dimensions XX"@en ;
        rdfs:label                  "267"^^xsd:string ;
        qb:dataSet                  ds:dataset-AE ;
        crnd-attribute:cellpartno   "1"^^xsd:string ;
        crnd-attribute:colno        "1"^^xsd:string ;
        crnd-attribute:denominator  "_NULL_" ;
        crnd-attribute:rowno        "256"^^xsd:string ;
        crnd-attribute:unit         "_NULL_"^^xsd:string ;
        crnd-dimension:aedecod      code:aedecod-_ALL_ ;
        crnd-dimension:aesoc        code:aesoc-SURGICAL_AND_MEDICAL_PROCEDURES ;
        crnd-dimension:factor       code:factor-quantity ;
        crnd-dimension:procedure    code:procedure-count ;
        crnd-dimension:saffl        code:saffl-Y ;
        crnd-dimension:trta         code:trta-Placebo ;
        crnd-measure:measure        "2"^^xsd:double .

ds:obs1123  a                       qb:Observation ;
        rdfs:comment                "Statistic for number of records/Statistics for factor with the dimensions XX"@en ;
        rdfs:label                  "1123"^^xsd:string ;
        qb:dataSet                  ds:dataset-AE ;
        crnd-attribute:cellpartno   "1"^^xsd:string ;
        crnd-attribute:colno        "4"^^xsd:string ;
        crnd-attribute:denominator  "_NULL_" ;
        crnd-attribute:rowno        "125"^^xsd:string ;
        crnd-attribute:unit         "_NULL_"^^xsd:string ;
        crnd-dimension:aedecod      code:aedecod-BIOPSY_PROSTATE ;
        crnd-dimension:aesoc        code:aesoc-INVESTIGATIONS ;
        crnd-dimension:factor       code:factor-quantity ;
        crnd-dimension:procedure    code:procedure-count ;
        crnd-dimension:saffl        code:saffl-Y ;
        crnd-dimension:trta         code:trta-_ALL_ ;
        crnd-measure:measure        "1"^^xsd:double .

ds:obs0014  a                       qb:Observation ;
        rdfs:comment                "Statistic for number of records/Statistics for factor with the dimensions XX"@en ;
        rdfs:label                  "14"^^xsd:string ;
        qb:dataSet                  ds:dataset-AE ;
        crnd-attribute:cellpartno   "2"^^xsd:string ;
        crnd-attribute:colno        "1"^^xsd:string ;
        crnd-attribute:denominator  "_NULL_" ;
        crnd-attribute:rowno        "8"^^xsd:string ;
        crnd-attribute:unit         "_NULL_"^^xsd:string ;
        crnd-dimension:aedecod      code:aedecod-BRADYCARDIA ;
        crnd-dimension:aesoc        code:aesoc-CARDIAC_DISORDERS ;
        crnd-dimension:factor       code:factor-USUBJID ;
        crnd-dimension:procedure    code:procedure-countdistinct ;
        crnd-dimension:saffl        code:saffl-Y ;
        crnd-dimension:trta         code:trta-Placebo ;
        crnd-measure:measure        "1"^^xsd:double .

ds:obs0561  a                       qb:Observation ;
        rdfs:comment                "Statistic for number of records/Statistics for factor with the dimensions XX"@en ;
        rdfs:label                  "561"^^xsd:string ;
        qb:dataSet                  ds:dataset-AE ;
        crnd-attribute:cellpartno   "1"^^xsd:string ;
        crnd-attribute:colno        "2"^^xsd:string ;
        crnd-attribute:denominator  "_NULL_" ;
        crnd-attribute:rowno        "248"^^xsd:string ;
        crnd-attribute:unit         "_NULL_"^^xsd:string ;
        crnd-dimension:aedecod      code:aedecod-RASH_PRURITIC ;
        crnd-dimension:aesoc        code:aesoc-SKIN_AND_SUBCUTANEOUS_TISSUE_DISORDERS ;
        crnd-dimension:factor       code:factor-quantity ;
        crnd-dimension:procedure    code:procedure-count ;
        crnd-dimension:saffl        code:saffl-Y ;
        crnd-dimension:trta         code:trta-Xanomeline_High_Dose ;
        crnd-measure:measure        "3"^^xsd:double .

ds:obs0739  a                       qb:Observation ;
        rdfs:comment                "Statistic for number of records/Statistics for factor with the dimensions XX"@en ;
        rdfs:label                  "739"^^xsd:string ;
        qb:dataSet                  ds:dataset-AE ;
        crnd-attribute:cellpartno   "1"^^xsd:string ;
        crnd-attribute:colno        "3"^^xsd:string ;
        crnd-attribute:denominator  "_NULL_" ;
        crnd-attribute:rowno        "135"^^xsd:string ;
        crnd-attribute:unit         "_NULL_"^^xsd:string ;
        crnd-dimension:aedecod      code:aedecod-ELECTROCARDIOGRAM_T_WAVE_INVERSION ;
        crnd-dimension:aesoc        code:aesoc-INVESTIGATIONS ;
        crnd-dimension:factor       code:factor-quantity ;
        crnd-dimension:procedure    code:procedure-count ;
        crnd-dimension:saffl        code:saffl-Y ;
        crnd-dimension:trta         code:trta-Xanomeline_Low_Dose ;
        crnd-measure:measure        "1"^^xsd:double .

code:aesoc-METABOLISM_AND_NUTRITION_DISORDERS
        a                             code:Aesoc , skos:Concept ;
        rdfs:comment                  "Coded values from data source. No reconciliation against another source"@en ;
        rrdfqbcrnd0:R-selectionoperator
                "=="^^xsd:string ;
        rrdfqbcrnd0:R-selectionvalue  "METABOLISM AND NUTRITION DISORDERS"^^xsd:string ;
        skos:inScheme                 code:aesoc ;
        skos:prefLabel                "METABOLISM AND NUTRITION DISORDERS"^^xsd:string ;
        skos:topConceptOf             code:aesoc .

ds:obs1389  a                       qb:Observation ;
        rdfs:comment                "Statistic for number of records/Statistics for factor with the dimensions XX"@en ;
        rdfs:label                  "1389"^^xsd:string ;
        qb:dataSet                  ds:dataset-AE ;
        crnd-attribute:cellpartno   "1"^^xsd:string ;
        crnd-attribute:colno        "4"^^xsd:string ;
        crnd-attribute:denominator  "_NULL_" ;
        crnd-attribute:rowno        "258"^^xsd:string ;
        crnd-attribute:unit         "_NULL_"^^xsd:string ;
        crnd-dimension:aedecod      code:aedecod-CATARACT_OPERATION ;
        crnd-dimension:aesoc        code:aesoc-SURGICAL_AND_MEDICAL_PROCEDURES ;
        crnd-dimension:factor       code:factor-quantity ;
        crnd-dimension:procedure    code:procedure-count ;
        crnd-dimension:saffl        code:saffl-Y ;
        crnd-dimension:trta         code:trta-_ALL_ ;
        crnd-measure:measure        "2"^^xsd:double .

ds:obs1136  a                       qb:Observation ;
        rdfs:comment                "Statistic for number of records/Statistics for factor with the dimensions XX"@en ;
        rdfs:label                  "1136"^^xsd:string ;
        qb:dataSet                  ds:dataset-AE ;
        crnd-attribute:cellpartno   "2"^^xsd:string ;
        crnd-attribute:colno        "4"^^xsd:string ;
        crnd-attribute:denominator  "_NULL_" ;
        crnd-attribute:rowno        "131"^^xsd:string ;
        crnd-attribute:unit         "_NULL_"^^xsd:string ;
        crnd-dimension:aedecod      code:aedecod-BODY_TEMPERATURE_INCREASED ;
        crnd-dimension:aesoc        code:aesoc-INVESTIGATIONS ;
        crnd-dimension:factor       code:factor-USUBJID ;
        crnd-dimension:procedure    code:procedure-countdistinct ;
        crnd-dimension:saffl        code:saffl-Y ;
        crnd-dimension:trta         code:trta-_ALL_ ;
        crnd-measure:measure        "1"^^xsd:double .

code:aedecod-RASH_ERYTHEMATOUS
        a                             code:Aedecod , skos:Concept ;
        rdfs:comment                  "Coded values from data source. No reconciliation against another source"@en ;
        rrdfqbcrnd0:R-selectionoperator
                "=="^^xsd:string ;
        rrdfqbcrnd0:R-selectionvalue  "RASH ERYTHEMATOUS"^^xsd:string ;
        skos:inScheme                 code:aedecod ;
        skos:prefLabel                "RASH ERYTHEMATOUS"^^xsd:string ;
        skos:topConceptOf             code:aedecod .

ds:obs0027  a                       qb:Observation ;
        rdfs:comment                "Statistic for number of records/Statistics for factor with the dimensions XX"@en ;
        rdfs:label                  "27"^^xsd:string ;
        qb:dataSet                  ds:dataset-AE ;
        crnd-attribute:cellpartno   "1"^^xsd:string ;
        crnd-attribute:colno        "1"^^xsd:string ;
        crnd-attribute:denominator  "_NULL_" ;
        crnd-attribute:rowno        "17"^^xsd:string ;
        crnd-attribute:unit         "_NULL_"^^xsd:string ;
        crnd-dimension:aedecod      code:aedecod-SUPRAVENTRICULAR_EXTRASYSTOLES ;
        crnd-dimension:aesoc        code:aesoc-CARDIAC_DISORDERS ;
        crnd-dimension:factor       code:factor-quantity ;
        crnd-dimension:procedure    code:procedure-count ;
        crnd-dimension:saffl        code:saffl-Y ;
        crnd-dimension:trta         code:trta-Placebo ;
        crnd-measure:measure        "2"^^xsd:double .

ds:obs0574  a                       qb:Observation ;
        rdfs:comment                "Statistic for number of records/Statistics for factor with the dimensions XX"@en ;
        rdfs:label                  "574"^^xsd:string ;
        qb:dataSet                  ds:dataset-AE ;
        crnd-attribute:cellpartno   "2"^^xsd:string ;
        crnd-attribute:colno        "2"^^xsd:string ;
        crnd-attribute:denominator  "_NULL_" ;
        crnd-attribute:rowno        "256"^^xsd:string ;
        crnd-attribute:unit         "_NULL_"^^xsd:string ;
        crnd-dimension:aedecod      code:aedecod-_ALL_ ;
        crnd-dimension:aesoc        code:aesoc-SURGICAL_AND_MEDICAL_PROCEDURES ;
        crnd-dimension:factor       code:factor-USUBJID ;
        crnd-dimension:procedure    code:procedure-countdistinct ;
        crnd-dimension:saffl        code:saffl-Y ;
        crnd-dimension:trta         code:trta-Xanomeline_High_Dose ;
        crnd-measure:measure        "2"^^xsd:double .

code:aedecod-HYPERSENSITIVITY
        a                             code:Aedecod , skos:Concept ;
        rdfs:comment                  "Coded values from data source. No reconciliation against another source"@en ;
        rrdfqbcrnd0:R-selectionoperator
                "=="^^xsd:string ;
        rrdfqbcrnd0:R-selectionvalue  "HYPERSENSITIVITY"^^xsd:string ;
        skos:inScheme                 code:aedecod ;
        skos:prefLabel                "HYPERSENSITIVITY"^^xsd:string ;
        skos:topConceptOf             code:aedecod .

ds:obs0321  a                       qb:Observation ;
        rdfs:comment                "Statistic for number of records/Statistics for factor with the dimensions XX"@en ;
        rdfs:label                  "321"^^xsd:string ;
        qb:dataSet                  ds:dataset-AE ;
        crnd-attribute:cellpartno   "1"^^xsd:string ;
        crnd-attribute:colno        "2"^^xsd:string ;
        crnd-attribute:denominator  "_NULL_" ;
        crnd-attribute:rowno        "43"^^xsd:string ;
        crnd-attribute:unit         "_NULL_"^^xsd:string ;
        crnd-dimension:aedecod      code:aedecod-DYSPEPSIA ;
        crnd-dimension:aesoc        code:aesoc-GASTROINTESTINAL_DISORDERS ;
        crnd-dimension:factor       code:factor-quantity ;
        crnd-dimension:procedure    code:procedure-count ;
        crnd-dimension:saffl        code:saffl-Y ;
        crnd-dimension:trta         code:trta-Xanomeline_High_Dose ;
        crnd-measure:measure        "1"^^xsd:double .

ds:obs1149  a                       qb:Observation ;
        rdfs:comment                "Statistic for number of records/Statistics for factor with the dimensions XX"@en ;
        rdfs:label                  "1149"^^xsd:string ;
        qb:dataSet                  ds:dataset-AE ;
        crnd-attribute:cellpartno   "1"^^xsd:string ;
        crnd-attribute:colno        "4"^^xsd:string ;
        crnd-attribute:denominator  "_NULL_" ;
        crnd-attribute:rowno        "138"^^xsd:string ;
        crnd-attribute:unit         "_NULL_"^^xsd:string ;
        crnd-dimension:aedecod      code:aedecod-NASAL_MUCOSA_BIOPSY ;
        crnd-dimension:aesoc        code:aesoc-INVESTIGATIONS ;
        crnd-dimension:factor       code:factor-quantity ;
        crnd-dimension:procedure    code:procedure-count ;
        crnd-dimension:saffl        code:saffl-Y ;
        crnd-dimension:trta         code:trta-_ALL_ ;
        crnd-measure:measure        "1"^^xsd:double .

ds:obs0587  a                       qb:Observation ;
        rdfs:comment                "Statistic for number of records/Statistics for factor with the dimensions XX"@en ;
        rdfs:label                  "587"^^xsd:string ;
        qb:dataSet                  ds:dataset-AE ;
        crnd-attribute:cellpartno   "1"^^xsd:string ;
        crnd-attribute:colno        "3"^^xsd:string ;
        crnd-attribute:denominator  "_NULL_" ;
        crnd-attribute:rowno        "2"^^xsd:string ;
        crnd-attribute:unit         "_NULL_"^^xsd:string ;
        crnd-dimension:aedecod      code:aedecod-_ALL_ ;
        crnd-dimension:aesoc        code:aesoc-CARDIAC_DISORDERS ;
        crnd-dimension:factor       code:factor-quantity ;
        crnd-dimension:procedure    code:procedure-count ;
        crnd-dimension:saffl        code:saffl-Y ;
        crnd-dimension:trta         code:trta-Xanomeline_Low_Dose ;
        crnd-measure:measure        "30"^^xsd:double .

ds:obs0334  a                       qb:Observation ;
        rdfs:comment                "Statistic for number of records/Statistics for factor with the dimensions XX"@en ;
        rdfs:label                  "334"^^xsd:string ;
        qb:dataSet                  ds:dataset-AE ;
        crnd-attribute:cellpartno   "2"^^xsd:string ;
        crnd-attribute:colno        "2"^^xsd:string ;
        crnd-attribute:denominator  "_NULL_" ;
        crnd-attribute:rowno        "55"^^xsd:string ;
        crnd-attribute:unit         "_NULL_"^^xsd:string ;
        crnd-dimension:aedecod      code:aedecod-_ALL_ ;
        crnd-dimension:aesoc        code:aesoc-GENERAL_DISORDERS_AND_ADMINISTRATION_SITE_CONDITIONS ;
        crnd-dimension:factor       code:factor-USUBJID ;
        crnd-dimension:procedure    code:procedure-countdistinct ;
        crnd-dimension:saffl        code:saffl-Y ;
        crnd-dimension:trta         code:trta-Xanomeline_High_Dose ;
        crnd-measure:measure        "40"^^xsd:double .

ds:obs0881  a                       qb:Observation ;
        rdfs:comment                "Statistic for number of records/Statistics for factor with the dimensions XX"@en ;
        rdfs:label                  "881"^^xsd:string ;
        qb:dataSet                  ds:dataset-AE ;
        crnd-attribute:cellpartno   "1"^^xsd:string ;
        crnd-attribute:colno        "4"^^xsd:string ;
        crnd-attribute:denominator  "_NULL_" ;
        crnd-attribute:rowno        "4"^^xsd:string ;
        crnd-attribute:unit         "_NULL_"^^xsd:string ;
        crnd-dimension:aedecod      code:aedecod-ATRIAL_FLUTTER ;
        crnd-dimension:aesoc        code:aesoc-CARDIAC_DISORDERS ;
        crnd-dimension:factor       code:factor-quantity ;
        crnd-dimension:procedure    code:procedure-count ;
        crnd-dimension:saffl        code:saffl-Y ;
        crnd-dimension:trta         code:trta-_ALL_ ;
        crnd-measure:measure        "3"^^xsd:double .

ds:obs0806  a                       qb:Observation ;
        rdfs:comment                "Statistic for number of records/Statistics for factor with the dimensions XX"@en ;
        rdfs:label                  "806"^^xsd:string ;
        qb:dataSet                  ds:dataset-AE ;
        crnd-attribute:cellpartno   "2"^^xsd:string ;
        crnd-attribute:colno        "3"^^xsd:string ;
        crnd-attribute:denominator  "_NULL_" ;
        crnd-attribute:rowno        "195"^^xsd:string ;
        crnd-attribute:unit         "_NULL_"^^xsd:string ;
        crnd-dimension:aedecod      code:aedecod-DEPRESSED_MOOD ;
        crnd-dimension:aesoc        code:aesoc-PSYCHIATRIC_DISORDERS ;
        crnd-dimension:factor       code:factor-USUBJID ;
        crnd-dimension:procedure    code:procedure-countdistinct ;
        crnd-dimension:saffl        code:saffl-Y ;
        crnd-dimension:trta         code:trta-Xanomeline_Low_Dose ;
        crnd-measure:measure        "1"^^xsd:double .

code:aedecod-ULCER  a                 code:Aedecod , skos:Concept ;
        rdfs:comment                  "Coded values from data source. No reconciliation against another source"@en ;
        rrdfqbcrnd0:R-selectionoperator
                "=="^^xsd:string ;
        rrdfqbcrnd0:R-selectionvalue  "ULCER"^^xsd:string ;
        skos:inScheme                 code:aedecod ;
        skos:prefLabel                "ULCER"^^xsd:string ;
        skos:topConceptOf             code:aedecod .

ds:obs0347  a                       qb:Observation ;
        rdfs:comment                "Statistic for number of records/Statistics for factor with the dimensions XX"@en ;
        rdfs:label                  "347"^^xsd:string ;
        qb:dataSet                  ds:dataset-AE ;
        crnd-attribute:cellpartno   "1"^^xsd:string ;
        crnd-attribute:colno        "2"^^xsd:string ;
        crnd-attribute:denominator  "_NULL_" ;
        crnd-attribute:rowno        "66"^^xsd:string ;
        crnd-attribute:unit         "_NULL_"^^xsd:string ;
        crnd-dimension:aedecod      code:aedecod-APPLICATION_SITE_PRURITUS ;
        crnd-dimension:aesoc        code:aesoc-GENERAL_DISORDERS_AND_ADMINISTRATION_SITE_CONDITIONS ;
        crnd-dimension:factor       code:factor-quantity ;
        crnd-dimension:procedure    code:procedure-count ;
        crnd-dimension:saffl        code:saffl-Y ;
        crnd-dimension:trta         code:trta-Xanomeline_High_Dose ;
        crnd-measure:measure        "35"^^xsd:double .

ds:obs0894  a                       qb:Observation ;
        rdfs:comment                "Statistic for number of records/Statistics for factor with the dimensions XX"@en ;
        rdfs:label                  "894"^^xsd:string ;
        qb:dataSet                  ds:dataset-AE ;
        crnd-attribute:cellpartno   "2"^^xsd:string ;
        crnd-attribute:colno        "4"^^xsd:string ;
        crnd-attribute:denominator  "_NULL_" ;
        crnd-attribute:rowno        "10"^^xsd:string ;
        crnd-attribute:unit         "_NULL_"^^xsd:string ;
        crnd-dimension:aedecod      code:aedecod-BUNDLE_BRANCH_BLOCK_RIGHT ;
        crnd-dimension:aesoc        code:aesoc-CARDIAC_DISORDERS ;
        crnd-dimension:factor       code:factor-USUBJID ;
        crnd-dimension:procedure    code:procedure-countdistinct ;
        crnd-dimension:saffl        code:saffl-Y ;
        crnd-dimension:trta         code:trta-_ALL_ ;
        crnd-measure:measure        "2"^^xsd:double .

ds:obs1203  a                       qb:Observation ;
        rdfs:comment                "Statistic for number of records/Statistics for factor with the dimensions XX"@en ;
        rdfs:label                  "1203"^^xsd:string ;
        qb:dataSet                  ds:dataset-AE ;
        crnd-attribute:cellpartno   "1"^^xsd:string ;
        crnd-attribute:colno        "4"^^xsd:string ;
        crnd-attribute:denominator  "_NULL_" ;
        crnd-attribute:rowno        "165"^^xsd:string ;
        crnd-attribute:unit         "_NULL_"^^xsd:string ;
        crnd-dimension:aedecod      code:aedecod-_ALL_ ;
        crnd-dimension:aesoc        code:aesoc-NERVOUS_SYSTEM_DISORDERS ;
        crnd-dimension:factor       code:factor-quantity ;
        crnd-dimension:procedure    code:procedure-count ;
        crnd-dimension:saffl        code:saffl-Y ;
        crnd-dimension:trta         code:trta-_ALL_ ;
        crnd-measure:measure        "101"^^xsd:double .

ds:obs0641  a                       qb:Observation ;
        rdfs:comment                "Statistic for number of records/Statistics for factor with the dimensions XX"@en ;
        rdfs:label                  "641"^^xsd:string ;
        qb:dataSet                  ds:dataset-AE ;
        crnd-attribute:cellpartno   "1"^^xsd:string ;
        crnd-attribute:colno        "3"^^xsd:string ;
        crnd-attribute:denominator  "_NULL_" ;
        crnd-attribute:rowno        "51"^^xsd:string ;
        crnd-attribute:unit         "_NULL_"^^xsd:string ;
        crnd-dimension:aedecod      code:aedecod-RECTAL_HAEMORRHAGE ;
        crnd-dimension:aesoc        code:aesoc-GASTROINTESTINAL_DISORDERS ;
        crnd-dimension:factor       code:factor-quantity ;
        crnd-dimension:procedure    code:procedure-count ;
        crnd-dimension:saffl        code:saffl-Y ;
        crnd-dimension:trta         code:trta-Xanomeline_Low_Dose ;
        crnd-measure:measure        "2"^^xsd:double .

ds:obs1291  a                       qb:Observation ;
        rdfs:comment                "Statistic for number of records/Statistics for factor with the dimensions XX"@en ;
        rdfs:label                  "1291"^^xsd:string ;
        qb:dataSet                  ds:dataset-AE ;
        crnd-attribute:cellpartno   "1"^^xsd:string ;
        crnd-attribute:colno        "4"^^xsd:string ;
        crnd-attribute:denominator  "_NULL_" ;
        crnd-attribute:rowno        "209"^^xsd:string ;
        crnd-attribute:unit         "_NULL_"^^xsd:string ;
        crnd-dimension:aedecod      code:aedecod-INCONTINENCE ;
        crnd-dimension:aesoc        code:aesoc-RENAL_AND_URINARY_DISORDERS ;
        crnd-dimension:factor       code:factor-quantity ;
        crnd-dimension:procedure    code:procedure-count ;
        crnd-dimension:saffl        code:saffl-Y ;
        crnd-dimension:trta         code:trta-_ALL_ ;
        crnd-measure:measure        "1"^^xsd:double .

ds:obs0819  a                       qb:Observation ;
        rdfs:comment                "Statistic for number of records/Statistics for factor with the dimensions XX"@en ;
        rdfs:label                  "819"^^xsd:string ;
        qb:dataSet                  ds:dataset-AE ;
        crnd-attribute:cellpartno   "1"^^xsd:string ;
        crnd-attribute:colno        "3"^^xsd:string ;
        crnd-attribute:denominator  "_NULL_" ;
        crnd-attribute:rowno        "210"^^xsd:string ;
        crnd-attribute:unit         "_NULL_"^^xsd:string ;
        crnd-dimension:aedecod      code:aedecod-MICTURITION_URGENCY ;
        crnd-dimension:aesoc        code:aesoc-RENAL_AND_URINARY_DISORDERS ;
        crnd-dimension:factor       code:factor-quantity ;
        crnd-dimension:procedure    code:procedure-count ;
        crnd-dimension:saffl        code:saffl-Y ;
        crnd-dimension:trta         code:trta-Xanomeline_Low_Dose ;
        crnd-measure:measure        "1"^^xsd:double .

code:aedecod-HIATUS_HERNIA
        a                             code:Aedecod , skos:Concept ;
        rdfs:comment                  "Coded values from data source. No reconciliation against another source"@en ;
        rrdfqbcrnd0:R-selectionoperator
                "=="^^xsd:string ;
        rrdfqbcrnd0:R-selectionvalue  "HIATUS HERNIA"^^xsd:string ;
        skos:inScheme                 code:aedecod ;
        skos:prefLabel                "HIATUS HERNIA"^^xsd:string ;
        skos:topConceptOf             code:aedecod .

ds:obs0182  a                       qb:Observation ;
        rdfs:comment                "Statistic for number of records/Statistics for factor with the dimensions XX"@en ;
        rdfs:label                  "182"^^xsd:string ;
        qb:dataSet                  ds:dataset-AE ;
        crnd-attribute:cellpartno   "2"^^xsd:string ;
        crnd-attribute:colno        "1"^^xsd:string ;
        crnd-attribute:denominator  "_NULL_" ;
        crnd-attribute:rowno        "160"^^xsd:string ;
        crnd-attribute:unit         "_NULL_"^^xsd:string ;
        crnd-dimension:aedecod      code:aedecod-SHOULDER_PAIN ;
        crnd-dimension:aesoc        code:aesoc-MUSCULOSKELETAL_AND_CONNECTIVE_TISSUE_DISORDERS ;
        crnd-dimension:factor       code:factor-USUBJID ;
        crnd-dimension:procedure    code:procedure-countdistinct ;
        crnd-dimension:saffl        code:saffl-Y ;
        crnd-dimension:trta         code:trta-Placebo ;
        crnd-measure:measure        "1"^^xsd:double .

ds:obs1216  a                       qb:Observation ;
        rdfs:comment                "Statistic for number of records/Statistics for factor with the dimensions XX"@en ;
        rdfs:label                  "1216"^^xsd:string ;
        qb:dataSet                  ds:dataset-AE ;
        crnd-attribute:cellpartno   "2"^^xsd:string ;
        crnd-attribute:colno        "4"^^xsd:string ;
        crnd-attribute:denominator  "_NULL_" ;
        crnd-attribute:rowno        "171"^^xsd:string ;
        crnd-attribute:unit         "_NULL_"^^xsd:string ;
        crnd-dimension:aedecod      code:aedecod-COORDINATION_ABNORMAL ;
        crnd-dimension:aesoc        code:aesoc-NERVOUS_SYSTEM_DISORDERS ;
        crnd-dimension:factor       code:factor-USUBJID ;
        crnd-dimension:procedure    code:procedure-countdistinct ;
        crnd-dimension:saffl        code:saffl-Y ;
        crnd-dimension:trta         code:trta-_ALL_ ;
        crnd-measure:measure        "1"^^xsd:double .

ds:obs0107  a                       qb:Observation ;
        rdfs:comment                "Statistic for number of records/Statistics for factor with the dimensions XX"@en ;
        rdfs:label                  "107"^^xsd:string ;
        qb:dataSet                  ds:dataset-AE ;
        crnd-attribute:cellpartno   "1"^^xsd:string ;
        crnd-attribute:colno        "1"^^xsd:string ;
        crnd-attribute:denominator  "_NULL_" ;
        crnd-attribute:rowno        "99"^^xsd:string ;
        crnd-attribute:unit         "_NULL_"^^xsd:string ;
        crnd-dimension:aedecod      code:aedecod-CYSTITIS ;
        crnd-dimension:aesoc        code:aesoc-INFECTIONS_AND_INFESTATIONS ;
        crnd-dimension:factor       code:factor-quantity ;
        crnd-dimension:procedure    code:procedure-count ;
        crnd-dimension:saffl        code:saffl-Y ;
        crnd-dimension:trta         code:trta-Placebo ;
        crnd-measure:measure        "1"^^xsd:double .

ds:obs0654  a                       qb:Observation ;
        rdfs:comment                "Statistic for number of records/Statistics for factor with the dimensions XX"@en ;
        rdfs:label                  "654"^^xsd:string ;
        qb:dataSet                  ds:dataset-AE ;
        crnd-attribute:cellpartno   "2"^^xsd:string ;
        crnd-attribute:colno        "3"^^xsd:string ;
        crnd-attribute:denominator  "_NULL_" ;
        crnd-attribute:rowno        "60"^^xsd:string ;
        crnd-attribute:unit         "_NULL_"^^xsd:string ;
        crnd-dimension:aedecod      code:aedecod-APPLICATION_SITE_DISCOLOURATION ;
        crnd-dimension:aesoc        code:aesoc-GENERAL_DISORDERS_AND_ADMINISTRATION_SITE_CONDITIONS ;
        crnd-dimension:factor       code:factor-USUBJID ;
        crnd-dimension:procedure    code:procedure-countdistinct ;
        crnd-dimension:saffl        code:saffl-Y ;
        crnd-dimension:trta         code:trta-Xanomeline_Low_Dose ;
        crnd-measure:measure        "1"^^xsd:double .

ds:obs0401  a                       qb:Observation ;
        rdfs:comment                "Statistic for number of records/Statistics for factor with the dimensions XX"@en ;
        rdfs:label                  "401"^^xsd:string ;
        qb:dataSet                  ds:dataset-AE ;
        crnd-attribute:cellpartno   "1"^^xsd:string ;
        crnd-attribute:colno        "2"^^xsd:string ;
        crnd-attribute:denominator  "_NULL_" ;
        crnd-attribute:rowno        "114"^^xsd:string ;
        crnd-attribute:unit         "_NULL_"^^xsd:string ;
        crnd-dimension:aedecod      code:aedecod-_ALL_ ;
        crnd-dimension:aesoc        code:aesoc-INJURY__POISONING_AND_PROCEDURAL_COMPLICATIONS ;
        crnd-dimension:factor       code:factor-quantity ;
        crnd-dimension:procedure    code:procedure-count ;
        crnd-dimension:saffl        code:saffl-Y ;
        crnd-dimension:trta         code:trta-Xanomeline_High_Dose ;
        crnd-measure:measure        "8"^^xsd:double .

ds:obs0195  a                       qb:Observation ;
        rdfs:comment                "Statistic for number of records/Statistics for factor with the dimensions XX"@en ;
        rdfs:label                  "195"^^xsd:string ;
        qb:dataSet                  ds:dataset-AE ;
        crnd-attribute:cellpartno   "1"^^xsd:string ;
        crnd-attribute:colno        "1"^^xsd:string ;
        crnd-attribute:denominator  "_NULL_" ;
        crnd-attribute:rowno        "188"^^xsd:string ;
        crnd-attribute:unit         "_NULL_"^^xsd:string ;
        crnd-dimension:aedecod      code:aedecod-_ALL_ ;
        crnd-dimension:aesoc        code:aesoc-PSYCHIATRIC_DISORDERS ;
        crnd-dimension:factor       code:factor-quantity ;
        crnd-dimension:procedure    code:procedure-count ;
        crnd-dimension:saffl        code:saffl-Y ;
        crnd-dimension:trta         code:trta-Placebo ;
        crnd-measure:measure        "14"^^xsd:double .

code:aedecod-EYE_PRURITUS
        a                             code:Aedecod , skos:Concept ;
        rdfs:comment                  "Coded values from data source. No reconciliation against another source"@en ;
        rrdfqbcrnd0:R-selectionoperator
                "=="^^xsd:string ;
        rrdfqbcrnd0:R-selectionvalue  "EYE PRURITUS"^^xsd:string ;
        skos:inScheme                 code:aedecod ;
        skos:prefLabel                "EYE PRURITUS"^^xsd:string ;
        skos:topConceptOf             code:aedecod .

ds:obs1051  a                       qb:Observation ;
        rdfs:comment                "Statistic for number of records/Statistics for factor with the dimensions XX"@en ;
        rdfs:label                  "1051"^^xsd:string ;
        qb:dataSet                  ds:dataset-AE ;
        crnd-attribute:cellpartno   "1"^^xsd:string ;
        crnd-attribute:colno        "4"^^xsd:string ;
        crnd-attribute:denominator  "_NULL_" ;
        crnd-attribute:rowno        "89"^^xsd:string ;
        crnd-attribute:unit         "_NULL_"^^xsd:string ;
        crnd-dimension:aedecod      code:aedecod-ULCER ;
        crnd-dimension:aesoc        code:aesoc-GENERAL_DISORDERS_AND_ADMINISTRATION_SITE_CONDITIONS ;
        crnd-dimension:factor       code:factor-quantity ;
        crnd-dimension:procedure    code:procedure-count ;
        crnd-dimension:saffl        code:saffl-Y ;
        crnd-dimension:trta         code:trta-_ALL_ ;
        crnd-measure:measure        "1"^^xsd:double .

ds:obs1229  a                       qb:Observation ;
        rdfs:comment                "Statistic for number of records/Statistics for factor with the dimensions XX"@en ;
        rdfs:label                  "1229"^^xsd:string ;
        qb:dataSet                  ds:dataset-AE ;
        crnd-attribute:cellpartno   "1"^^xsd:string ;
        crnd-attribute:colno        "4"^^xsd:string ;
        crnd-attribute:denominator  "_NULL_" ;
        crnd-attribute:rowno        "178"^^xsd:string ;
        crnd-attribute:unit         "_NULL_"^^xsd:string ;
        crnd-dimension:aedecod      code:aedecod-PARAESTHESIA_ORAL ;
        crnd-dimension:aesoc        code:aesoc-NERVOUS_SYSTEM_DISORDERS ;
        crnd-dimension:factor       code:factor-quantity ;
        crnd-dimension:procedure    code:procedure-count ;
        crnd-dimension:saffl        code:saffl-Y ;
        crnd-dimension:trta         code:trta-_ALL_ ;
        crnd-measure:measure        "1"^^xsd:double .

ds:obs0667  a                       qb:Observation ;
        rdfs:comment                "Statistic for number of records/Statistics for factor with the dimensions XX"@en ;
        rdfs:label                  "667"^^xsd:string ;
        qb:dataSet                  ds:dataset-AE ;
        crnd-attribute:cellpartno   "1"^^xsd:string ;
        crnd-attribute:colno        "3"^^xsd:string ;
        crnd-attribute:denominator  "_NULL_" ;
        crnd-attribute:rowno        "71"^^xsd:string ;
        crnd-attribute:unit         "_NULL_"^^xsd:string ;
        crnd-dimension:aedecod      code:aedecod-APPLICATION_SITE_WARMTH ;
        crnd-dimension:aesoc        code:aesoc-GENERAL_DISORDERS_AND_ADMINISTRATION_SITE_CONDITIONS ;
        crnd-dimension:factor       code:factor-quantity ;
        crnd-dimension:procedure    code:procedure-count ;
        crnd-dimension:saffl        code:saffl-Y ;
        crnd-dimension:trta         code:trta-Xanomeline_Low_Dose ;
        crnd-measure:measure        "2"^^xsd:double .

ds:obs0961  a                       qb:Observation ;
        rdfs:comment                "Statistic for number of records/Statistics for factor with the dimensions XX"@en ;
        rdfs:label                  "961"^^xsd:string ;
        qb:dataSet                  ds:dataset-AE ;
        crnd-attribute:cellpartno   "1"^^xsd:string ;
        crnd-attribute:colno        "4"^^xsd:string ;
        crnd-attribute:denominator  "_NULL_" ;
        crnd-attribute:rowno        "44"^^xsd:string ;
        crnd-attribute:unit         "_NULL_"^^xsd:string ;
        crnd-dimension:aedecod      code:aedecod-DYSPHAGIA ;
        crnd-dimension:aesoc        code:aesoc-GASTROINTESTINAL_DISORDERS ;
        crnd-dimension:factor       code:factor-quantity ;
        crnd-dimension:procedure    code:procedure-count ;
        crnd-dimension:saffl        code:saffl-Y ;
        crnd-dimension:trta         code:trta-_ALL_ ;
        crnd-measure:measure        "1"^^xsd:double .

code:aedecod-SHOULDER_PAIN
        a                             code:Aedecod , skos:Concept ;
        rdfs:comment                  "Coded values from data source. No reconciliation against another source"@en ;
        rrdfqbcrnd0:R-selectionoperator
                "=="^^xsd:string ;
        rrdfqbcrnd0:R-selectionvalue  "SHOULDER PAIN"^^xsd:string ;
        skos:inScheme                 code:aedecod ;
        skos:prefLabel                "SHOULDER PAIN"^^xsd:string ;
        skos:topConceptOf             code:aedecod .

ds:obs0414  a                       qb:Observation ;
        rdfs:comment                "Statistic for number of records/Statistics for factor with the dimensions XX"@en ;
        rdfs:label                  "414"^^xsd:string ;
        qb:dataSet                  ds:dataset-AE ;
        crnd-attribute:cellpartno   "2"^^xsd:string ;
        crnd-attribute:colno        "2"^^xsd:string ;
        crnd-attribute:denominator  "_NULL_" ;
        crnd-attribute:rowno        "123"^^xsd:string ;
        crnd-attribute:unit         "_NULL_"^^xsd:string ;
        crnd-dimension:aedecod      code:aedecod-_ALL_ ;
        crnd-dimension:aesoc        code:aesoc-INVESTIGATIONS ;
        crnd-dimension:factor       code:factor-USUBJID ;
        crnd-dimension:procedure    code:procedure-countdistinct ;
        crnd-dimension:saffl        code:saffl-Y ;
        crnd-dimension:trta         code:trta-Xanomeline_High_Dose ;
        crnd-measure:measure        "6"^^xsd:double .

dccs:denominator  a   qb:ComponentSpecification ;
        qb:attribute  crnd-attribute:denominator .

ds:obs1064  a                       qb:Observation ;
        rdfs:comment                "Statistic for number of records/Statistics for factor with the dimensions XX"@en ;
        rdfs:label                  "1064"^^xsd:string ;
        qb:dataSet                  ds:dataset-AE ;
        crnd-attribute:cellpartno   "2"^^xsd:string ;
        crnd-attribute:colno        "4"^^xsd:string ;
        crnd-attribute:denominator  "_NULL_" ;
        crnd-attribute:rowno        "95"^^xsd:string ;
        crnd-attribute:unit         "_NULL_"^^xsd:string ;
        crnd-dimension:aedecod      code:aedecod-_ALL_ ;
        crnd-dimension:aesoc        code:aesoc-INFECTIONS_AND_INFESTATIONS ;
        crnd-dimension:factor       code:factor-USUBJID ;
        crnd-dimension:procedure    code:procedure-countdistinct ;
        crnd-dimension:saffl        code:saffl-Y ;
        crnd-dimension:trta         code:trta-_ALL_ ;
        crnd-measure:measure        "39"^^xsd:double .

ds:obs0974  a                       qb:Observation ;
        rdfs:comment                "Statistic for number of records/Statistics for factor with the dimensions XX"@en ;
        rdfs:label                  "974"^^xsd:string ;
        qb:dataSet                  ds:dataset-AE ;
        crnd-attribute:cellpartno   "2"^^xsd:string ;
        crnd-attribute:colno        "4"^^xsd:string ;
        crnd-attribute:denominator  "_NULL_" ;
        crnd-attribute:rowno        "50"^^xsd:string ;
        crnd-attribute:unit         "_NULL_"^^xsd:string ;
        crnd-dimension:aedecod      code:aedecod-NAUSEA ;
        crnd-dimension:aesoc        code:aesoc-GASTROINTESTINAL_DISORDERS ;
        crnd-dimension:factor       code:factor-USUBJID ;
        crnd-dimension:procedure    code:procedure-countdistinct ;
        crnd-dimension:saffl        code:saffl-Y ;
        crnd-dimension:trta         code:trta-_ALL_ ;
        crnd-measure:measure        "12"^^xsd:double .

ds:obs0427  a                       qb:Observation ;
        rdfs:comment                "Statistic for number of records/Statistics for factor with the dimensions XX"@en ;
        rdfs:label                  "427"^^xsd:string ;
        qb:dataSet                  ds:dataset-AE ;
        crnd-attribute:cellpartno   "1"^^xsd:string ;
        crnd-attribute:colno        "2"^^xsd:string ;
        crnd-attribute:denominator  "_NULL_" ;
        crnd-attribute:rowno        "143"^^xsd:string ;
        crnd-attribute:unit         "_NULL_"^^xsd:string ;
        crnd-dimension:aedecod      code:aedecod-_ALL_ ;
        crnd-dimension:aesoc        code:aesoc-METABOLISM_AND_NUTRITION_DISORDERS ;
        crnd-dimension:factor       code:factor-quantity ;
        crnd-dimension:procedure    code:procedure-count ;
        crnd-dimension:saffl        code:saffl-Y ;
        crnd-dimension:trta         code:trta-Xanomeline_High_Dose ;
        crnd-measure:measure        "5"^^xsd:double .

ds:obs0721  a                       qb:Observation ;
        rdfs:comment                "Statistic for number of records/Statistics for factor with the dimensions XX"@en ;
        rdfs:label                  "721"^^xsd:string ;
        qb:dataSet                  ds:dataset-AE ;
        crnd-attribute:cellpartno   "1"^^xsd:string ;
        crnd-attribute:colno        "3"^^xsd:string ;
        crnd-attribute:denominator  "_NULL_" ;
        crnd-attribute:rowno        "118"^^xsd:string ;
        crnd-attribute:unit         "_NULL_"^^xsd:string ;
        crnd-dimension:aedecod      code:aedecod-FALL ;
        crnd-dimension:aesoc        code:aesoc-INJURY__POISONING_AND_PROCEDURAL_COMPLICATIONS ;
        crnd-dimension:factor       code:factor-quantity ;
        crnd-dimension:procedure    code:procedure-count ;
        crnd-dimension:saffl        code:saffl-Y ;
        crnd-dimension:trta         code:trta-Xanomeline_Low_Dose ;
        crnd-measure:measure        "2"^^xsd:double .

ds:obs1077  a                       qb:Observation ;
        rdfs:comment                "Statistic for number of records/Statistics for factor with the dimensions XX"@en ;
        rdfs:label                  "1077"^^xsd:string ;
        qb:dataSet                  ds:dataset-AE ;
        crnd-attribute:cellpartno   "1"^^xsd:string ;
        crnd-attribute:colno        "4"^^xsd:string ;
        crnd-attribute:denominator  "_NULL_" ;
        crnd-attribute:rowno        "102"^^xsd:string ;
        crnd-attribute:unit         "_NULL_"^^xsd:string ;
        crnd-dimension:aedecod      code:aedecod-HORDEOLUM ;
        crnd-dimension:aesoc        code:aesoc-INFECTIONS_AND_INFESTATIONS ;
        crnd-dimension:factor       code:factor-quantity ;
        crnd-dimension:procedure    code:procedure-count ;
        crnd-dimension:saffl        code:saffl-Y ;
        crnd-dimension:trta         code:trta-_ALL_ ;
        crnd-measure:measure        "1"^^xsd:double .

ds:obs1371  a                       qb:Observation ;
        rdfs:comment                "Statistic for number of records/Statistics for factor with the dimensions XX"@en ;
        rdfs:label                  "1371"^^xsd:string ;
        qb:dataSet                  ds:dataset-AE ;
        crnd-attribute:cellpartno   "1"^^xsd:string ;
        crnd-attribute:colno        "4"^^xsd:string ;
        crnd-attribute:denominator  "_NULL_" ;
