@prefix :      <http://rdf.cdisc.org/sdtm-terminology#> .
@prefix rdfs:  <http://www.w3.org/2000/01/rdf-schema#> .
@prefix mms:   <http://rdf.cdisc.org/mms#> .
@prefix owl:   <http://www.w3.org/2002/07/owl#> .
@prefix xsd:   <http://www.w3.org/2001/XMLSchema#> .
@prefix rdf:   <http://www.w3.org/1999/02/22-rdf-syntax-ns#> .
@prefix cts:   <http://rdf.cdisc.org/ct/schema#> .

:C65047.C74655  a                 mms:PermissibleValue ;
        cts:cdiscDefinition       "A relative measurement (ratio or percentage of the Sezary cells (atypical lymphocytes with cerebriform nuclei) to all lymphocytes in a biological specimen."^^xsd:string ;
        cts:cdiscSubmissionValue  "SEZCELY"^^xsd:string ;
        cts:cdiscSynonyms         "Sezary Cells/Lymphocytes"^^xsd:string ;
        cts:nciCode               "C74655"^^xsd:string ;
        cts:nciPreferredTerm      "Sezary Cell to Lymphocyte Ratio Measurement"^^xsd:string ;
        mms:inValueDomain         :C65047 .

:C106482.C106533  a               mms:PermissibleValue ;
        cts:cdiscDefinition       "A measurement of the number of data fields, pixels or data points assigned to each linear dimension in a digital image. (NCI)"^^xsd:string ;
        cts:cdiscSubmissionValue  "Image Acquisition Matrix Size"^^xsd:string ;
        cts:cdiscSynonyms         "Image Acquisition Matrix Size"^^xsd:string ;
        cts:nciCode               "C106533"^^xsd:string ;
        cts:nciPreferredTerm      "Image Acquisition Matrix Size"^^xsd:string ;
        mms:inValueDomain         :C106482 .

:C67154.C96592  a                 mms:PermissibleValue ;
        cts:cdiscDefinition       "A measurement of the circulating endothelial cells in a biological specimen."^^xsd:string ;
        cts:cdiscSubmissionValue  "Circulating Endothelial Cells"^^xsd:string ;
        cts:cdiscSynonyms         "Circulating Endothelial Cells"^^xsd:string ;
        cts:nciCode               "C96592"^^xsd:string ;
        cts:nciPreferredTerm      "Circulating Endothelial Cell Count"^^xsd:string ;
        mms:inValueDomain         :C67154 .

:C71620.C73736  a                 mms:PermissibleValue ;
        cts:cdiscDefinition       "A unit of osmotic pressure equal to one millionth of an osmole or the osmotic pressure of a 10E-6 molar solution of a substance that does not dissociate. (NCI)"^^xsd:string ;
        cts:cdiscSubmissionValue  "uOsM"^^xsd:string ;
        cts:cdiscSynonyms         "Microosmole"^^xsd:string ;
        cts:nciCode               "C73736"^^xsd:string ;
        cts:nciPreferredTerm      "uOsM"^^xsd:string ;
        mms:inValueDomain         :C71620 .

:C71150.C92231  a                 mms:PermissibleValue ;
        cts:cdiscDefinition       "An electrocardiographic finding in which there is evidence that electrical transmission through the left ventricle is impaired."^^xsd:string ;
        cts:cdiscSubmissionValue  "LEFT VENTRICULAR CONDUCTION DELAY"^^xsd:string ;
        cts:cdiscSynonyms         "Left Ventricular Conduction Delay"^^xsd:string ;
        cts:nciCode               "C92231"^^xsd:string ;
        cts:nciPreferredTerm      "Left Ventricular Conduction Delay"^^xsd:string ;
        mms:inValueDomain         :C71150 .

:C67154.C106519  a                mms:PermissibleValue ;
        cts:cdiscDefinition       "An assessment of Epstein-Barr virus infection based on a panel of EBV antigen antibody tests."^^xsd:string ;
        cts:cdiscSubmissionValue  "EBV Profile Interpretation"^^xsd:string ;
        cts:cdiscSynonyms         "EBV Profile Interpretation; Epstein-Barr Virus Antibody Profile; Epstein-Barr Virus Profile Interpretation; Epstein-Barr Virus Panel"^^xsd:string ;
        cts:nciCode               "C106519"^^xsd:string ;
        cts:nciPreferredTerm      "Epstein-Barr Virus Profile Interpretation"^^xsd:string ;
        mms:inValueDomain         :C67154 .

:C101858.C100044  a               mms:PermissibleValue ;
        cts:cdiscDefinition       "Dilation of the valve between the right ventricle and the pulmonary artery of the heart by inflating a balloon."^^xsd:string ;
        cts:cdiscSubmissionValue  "PULMONIC VALVULOPLASTY"^^xsd:string ;
        cts:nciCode               "C100044"^^xsd:string ;
        cts:nciPreferredTerm      "Pulmonic Valvuloplasty"^^xsd:string ;
        mms:inValueDomain         :C101858 .

:C85493.C92424  a                 mms:PermissibleValue ;
        cts:cdiscDefinition       "The total body clearance for intravascular administration, calculated using the predicted value of the last non-zero concentration, divided by the weight."^^xsd:string ;
        cts:cdiscSubmissionValue  "Total CL Pred Norm by WT"^^xsd:string ;
        cts:cdiscSynonyms         "Total CL Pred Norm by WT"^^xsd:string ;
        cts:nciCode               "C92424"^^xsd:string ;
        cts:nciPreferredTerm      "Total Clearance Predicted Normalized by Weight"^^xsd:string ;
        mms:inValueDomain         :C85493 .

:C71620.C105482  a                mms:PermissibleValue ;
        cts:cdiscDefinition       "A unit of time equal to one hundredth of a second (10E-2 seconds). (NCI)"^^xsd:string ;
        cts:cdiscSubmissionValue  "cs"^^xsd:string ;
        cts:cdiscSynonyms         "Centisecond; 10^-2 sec; csec"^^xsd:string ;
        cts:nciCode               "C105482"^^xsd:string ;
        cts:nciPreferredTerm      "Centisecond"^^xsd:string ;
        mms:inValueDomain         :C71620 .

:C67154.C74773  a                 mms:PermissibleValue ;
        cts:cdiscDefinition       "A measurement of the squamous epithelial cells present in a biological specimen."^^xsd:string ;
        cts:cdiscSubmissionValue  "Squamous Epithelial Cells"^^xsd:string ;
        cts:cdiscSynonyms         "Squamous Epithelial Cells"^^xsd:string ;
        cts:nciCode               "C74773"^^xsd:string ;
        cts:nciPreferredTerm      "Squamous Epithelial Cell Count"^^xsd:string ;
        mms:inValueDomain         :C67154 .

:C85491.C86926  a                 mms:PermissibleValue ;
        cts:cdiscDefinition       "Any bacterial organism that can be assigned to the genus Salmonella with serotype Typhi."^^xsd:string ;
        cts:cdiscSubmissionValue  "SALMONELLA SEROTYPE TYPHI"^^xsd:string ;
        cts:nciCode               "C86926"^^xsd:string ;
        cts:nciPreferredTerm      "Salmonella Serotype Typhi"^^xsd:string ;
        mms:inValueDomain         :C85491 .

:C85491.C86736  a                 mms:PermissibleValue ;
        cts:cdiscDefinition       "Any bacterial organism that can be assigned to the species Serratia ficaria."^^xsd:string ;
        cts:cdiscSubmissionValue  "SERRATIA FICARIA"^^xsd:string ;
        cts:nciCode               "C86736"^^xsd:string ;
        cts:nciPreferredTerm      "Serratia ficaria"^^xsd:string ;
        mms:inValueDomain         :C85491 .

:C88025.C3252  a                  mms:PermissibleValue ;
        cts:cdiscDefinition       "A benign neoplasm, comprised of large cells with cytoplasmatic granules, occurring in various organs/tissues."^^xsd:string ;
        cts:cdiscSubmissionValue  "GRANULAR CELL TUMOR, BENIGN"^^xsd:string ;
        cts:cdiscSynonyms         "BENIGN GRANULAR CELL TUMOR; BENIGN GRANULAR CELL NEOPLASM; BENIGN GRANULAR CELL MYOBLASTOMA; MYOBLASTOMA"^^xsd:string ;
        cts:nciCode               "C3252"^^xsd:string ;
        cts:nciPreferredTerm      "Benign Granular Cell Tumor"^^xsd:string ;
        mms:inValueDomain         :C88025 .

:C74456.C12404  a                 mms:PermissibleValue ;
        cts:cdiscDefinition       "One of the paired female reproductive glands containing the ova or germ cells; the ovary's stroma is a vascular connective tissue containing numbers of ovarian follicles enclosing the ova. (NCI)"^^xsd:string ;
        cts:cdiscSubmissionValue  "OVARY"^^xsd:string ;
        cts:cdiscSynonyms         "Ovary"^^xsd:string ;
        cts:nciCode               "C12404"^^xsd:string ;
        cts:nciPreferredTerm      "Ovary"^^xsd:string ;
        mms:inValueDomain         :C74456 .

:C71620.C48516  a                 mms:PermissibleValue ;
        cts:cdiscDefinition       "A unit of mass equal to one billionth (10E-9) of a gram, or one millionth (10E-6) of a milligram.(NCI)"^^xsd:string ;
        cts:cdiscSubmissionValue  "ng"^^xsd:string ;
        cts:cdiscSynonyms         "Nanogram"^^xsd:string ;
        cts:nciCode               "C48516"^^xsd:string ;
        cts:nciPreferredTerm      "Nanogram"^^xsd:string ;
        mms:inValueDomain         :C71620 .

:C85839.C92399  a                 mms:PermissibleValue ;
        cts:cdiscDefinition       "The total body clearance for extravascular administration divided by the fraction of dose absorbed, calculated using the observed value of the last non-zero concentration, divided by the body mass index."^^xsd:string ;
        cts:cdiscSubmissionValue  "CLFOB"^^xsd:string ;
        cts:cdiscSynonyms         "Total CL Obs by F Norm by BMI"^^xsd:string ;
        cts:nciCode               "C92399"^^xsd:string ;
        cts:nciPreferredTerm      "Total Clearance Observed by Fraction Dose Normalized by Body Mass Index"^^xsd:string ;
        mms:inValueDomain         :C85839 .

:C85491.C86546  a                 mms:PermissibleValue ;
        cts:cdiscDefinition       "Any bacterial organism that can be assigned to the species Mycobacterium peregrinum."^^xsd:string ;
        cts:cdiscSubmissionValue  "MYCOBACTERIUM PEREGRINUM"^^xsd:string ;
        cts:nciCode               "C86546"^^xsd:string ;
        cts:nciPreferredTerm      "Mycobacterium peregrinum"^^xsd:string ;
        mms:inValueDomain         :C85491 .

:C85494.C85675  a                 mms:PermissibleValue ;
        cts:cdiscDefinition       "Liters per milligram per second."^^xsd:string ;
        cts:cdiscSubmissionValue  "L/mg/s"^^xsd:string ;
        cts:cdiscSynonyms         "mL/ug/s; L/s/mg; mL/s/ug; mL/ug/sec; L/sec/mg; mL/sec/ug; L/mg/s"^^xsd:string ;
        cts:nciCode               "C85675"^^xsd:string ;
        cts:nciPreferredTerm      "Liter per Milligram per Second"^^xsd:string ;
        mms:inValueDomain         :C85494 .

:C66729.C38207  a                 mms:PermissibleValue ;
        cts:cdiscDefinition       "Administration within the thorax (internal to the ribs); synonymous with the term endothoracic. (FDA)"^^xsd:string ;
        cts:cdiscSubmissionValue  "INTRATHORACIC"^^xsd:string ;
        cts:nciCode               "C38207"^^xsd:string ;
        cts:nciPreferredTerm      "Endothoracic Route of Administration"^^xsd:string ;
        mms:inValueDomain         :C66729 .

:C85491.C86356  a                 mms:PermissibleValue ;
        cts:cdiscDefinition       "Any bacterial organism that can be assigned to the species Enterobacter aerogenes."^^xsd:string ;
        cts:cdiscSubmissionValue  "ENTEROBACTER AEROGENES"^^xsd:string ;
        cts:cdiscSynonyms         "AEROBACTER AEROGENES"^^xsd:string ;
        cts:nciCode               "C86356"^^xsd:string ;
        cts:nciPreferredTerm      "Enterobacter aerogenes"^^xsd:string ;
        mms:inValueDomain         :C85491 .

:C67154.C80176  a                 mms:PermissibleValue ;
        cts:cdiscDefinition       "A measurement of the complement C3b in a biological specimen."^^xsd:string ;
        cts:cdiscSubmissionValue  "Complement C3b"^^xsd:string ;
        cts:cdiscSynonyms         "Complement C3b"^^xsd:string ;
        cts:nciCode               "C80176"^^xsd:string ;
        cts:nciPreferredTerm      "Complement C3b Measurement"^^xsd:string ;
        mms:inValueDomain         :C67154 .

:C66786.C17138  a                 mms:PermissibleValue ;
        cts:cdiscDefinition       "A country in Central Europe, bordering the Adriatic Sea, between Austria and Croatia. (NCI)"^^xsd:string ;
        cts:cdiscSubmissionValue  "SVN"^^xsd:string ;
        cts:cdiscSynonyms         "SLOVENIA"^^xsd:string ;
        cts:nciCode               "C17138"^^xsd:string ;
        cts:nciPreferredTerm      "Slovenia"^^xsd:string ;
        mms:inValueDomain         :C66786 .

:C71152.C41255  a                 mms:PermissibleValue ;
        cts:cdiscDefinition       "An act or process of elucidation; explication, or explanation of the meaning of the event or thing via the assignment of objects from the domain to the constants of a formal language, truth-values to the proposition symbols, truth-functions to the connectives, other functions to the function symbols, and extensions to the predicates, if any. The assignments are result of human logic application and are not native to the symbols of the formal language."^^xsd:string ;
        cts:cdiscSubmissionValue  "Interpretation"^^xsd:string ;
        cts:cdiscSynonyms         "Interpretation"^^xsd:string ;
        cts:nciCode               "C41255"^^xsd:string ;
        cts:nciPreferredTerm      "Interpretation"^^xsd:string ;
        mms:inValueDomain         :C71152 .

:C85491.C86166  a                 mms:PermissibleValue ;
        cts:cdiscDefinition       "Any bacterial organism that can be assigned to the species Bacillus polymyxa."^^xsd:string ;
        cts:cdiscSubmissionValue  "BACILLUS POLYMYXA"^^xsd:string ;
        cts:nciCode               "C86166"^^xsd:string ;
        cts:nciPreferredTerm      "Bacillus polymyxa"^^xsd:string ;
        mms:inValueDomain         :C85491 .

:C65047.C82005  a                 mms:PermissibleValue ;
        cts:cdiscDefinition       "A measurement of the calprotectin in a biological specimen."^^xsd:string ;
        cts:cdiscSubmissionValue  "CALPRO"^^xsd:string ;
        cts:cdiscSynonyms         "Calprotectin"^^xsd:string ;
        cts:nciCode               "C82005"^^xsd:string ;
        cts:nciPreferredTerm      "Calprotectin Measurement"^^xsd:string ;
        mms:inValueDomain         :C65047 .

:C65047.C74808  a                 mms:PermissibleValue ;
        cts:cdiscDefinition       "A measurement of the interleukin 12 in a biological specimen."^^xsd:string ;
        cts:cdiscSubmissionValue  "INTLK12"^^xsd:string ;
        cts:cdiscSynonyms         "Interleukin 12"^^xsd:string ;
        cts:nciCode               "C74808"^^xsd:string ;
        cts:nciPreferredTerm      "Interleukin 12 Measurement"^^xsd:string ;
        mms:inValueDomain         :C65047 .

:C74456.C32239  a                 mms:PermissibleValue ;
        cts:cdiscDefinition       "The first of the seven cervical vertebrae. (NCI)"^^xsd:string ;
        cts:cdiscSubmissionValue  "C1 VERTEBRA"^^xsd:string ;
        cts:cdiscSynonyms         "C1 Vertebra"^^xsd:string ;
        cts:nciCode               "C32239"^^xsd:string ;
        cts:nciPreferredTerm      "C1 Vertebra"^^xsd:string ;
        mms:inValueDomain         :C74456 .

:C65047.C79447  a                 mms:PermissibleValue ;
        cts:cdiscDefinition       "A relative measurement (ratio or percentage) of the glucose to creatinine in a biological specimen."^^xsd:string ;
        cts:cdiscSubmissionValue  "GLUCCRT"^^xsd:string ;
        cts:cdiscSynonyms         "Glucose/Creatinine"^^xsd:string ;
        cts:nciCode               "C79447"^^xsd:string ;
        cts:nciPreferredTerm      "Glucose to Creatinine Ratio Measurement"^^xsd:string ;
        mms:inValueDomain         :C65047 .

:C65047.C74618  a                 mms:PermissibleValue ;
        cts:cdiscDefinition       "A measurement of the plasmacytoid lymphocytes (lymphocytes with peripherally clumped chromatin and often deep blue cytoplasm, and that appear similar to plasma cells) in a biological specimen."^^xsd:string ;
        cts:cdiscSubmissionValue  "LYMPL"^^xsd:string ;
        cts:cdiscSynonyms         "Plasmacytoid Lymphocytes; Plymphocytes"^^xsd:string ;
        cts:nciCode               "C74618"^^xsd:string ;
        cts:nciPreferredTerm      "Plasmacytoid Lymphocyte Count"^^xsd:string ;
        mms:inValueDomain         :C65047 .

:C101860  a                       mms:EnumeratedValueDomain ;
        cts:cdiscDefinition       "A codelist to describe whether the posterior descending artery comes from the right or left vessel system."^^xsd:string ;
        cts:cdiscSubmissionValue  "CARTDOM"^^xsd:string ;
        cts:cdiscSynonyms         "Coronary Artery Dominance"^^xsd:string ;
        cts:codelistName          "Coronary Artery Dominance"^^xsd:string ;
        cts:isExtensibleCodelist  false ;
        cts:nciCode               "C101860"^^xsd:string ;
        cts:nciPreferredTerm      "CDISC SDTM Coronary Artery Dominance Terminology"^^xsd:string .

:C66726.C48624  a                 mms:PermissibleValue ;
        cts:cdiscDefinition       "The use of a dosage form term is not relevant or appropriate. (NCI)"^^xsd:string ;
        cts:cdiscSubmissionValue  "NOT APPLICABLE"^^xsd:string ;
        cts:nciCode               "C48624"^^xsd:string ;
        cts:nciPreferredTerm      "Dosage Form Not Applicable"^^xsd:string ;
        mms:inValueDomain         :C66726 .

:C66786.C16596  a                 mms:PermissibleValue ;
        cts:cdiscDefinition       "A country in Western Africa, bordering the Atlantic Ocean at the Equator, between Republic of the Congo and Equatorial Guinea. (NCI)"^^xsd:string ;
        cts:cdiscSubmissionValue  "GAB"^^xsd:string ;
        cts:cdiscSynonyms         "GABON"^^xsd:string ;
        cts:nciCode               "C16596"^^xsd:string ;
        cts:nciPreferredTerm      "Gabon"^^xsd:string ;
        mms:inValueDomain         :C66786 .

:C66786.C17740  a                 mms:PermissibleValue ;
        cts:cdiscDefinition       "A group of islands in the South Pacific Ocean, about one-half of the way from Hawaii to New Zealand. (NCI)"^^xsd:string ;
        cts:cdiscSubmissionValue  "WSM"^^xsd:string ;
        cts:cdiscSynonyms         "SAMOA"^^xsd:string ;
        cts:nciCode               "C17740"^^xsd:string ;
        cts:nciPreferredTerm      "Samoa"^^xsd:string ;
        mms:inValueDomain         :C66786 .

:C71620.C48498  a                 mms:PermissibleValue ;
        cts:cdiscDefinition       "A dosing measurement based on the homeopathic dilution unit.(NCI)"^^xsd:string ;
        cts:cdiscSubmissionValue  "HOMEOPATHIC DILUTION"^^xsd:string ;
        cts:cdiscSynonyms         "Homeopathic Dilution Unit"^^xsd:string ;
        cts:nciCode               "C48498"^^xsd:string ;
        cts:nciPreferredTerm      "Homeopathic Dilution Unit"^^xsd:string ;
        mms:inValueDomain         :C71620 .

:C74456.C12386  a                 mms:PermissibleValue ;
        cts:cdiscDefinition       "The section of the intestines between the pylorus and cecum. The small intestine is approximately 20 feet long and consists of the duodenum, the jejunum, and the ileum. Its main function is to absorb nutrients from food as the food is transported to the large intestine. (NCI)"^^xsd:string ;
        cts:cdiscSubmissionValue  "SMALL INTESTINE"^^xsd:string ;
        cts:cdiscSynonyms         "Small Intestine"^^xsd:string ;
        cts:nciCode               "C12386"^^xsd:string ;
        cts:nciPreferredTerm      "Small Intestine"^^xsd:string ;
        mms:inValueDomain         :C74456 .

:C65047.C64853  a                 mms:PermissibleValue ;
        cts:cdiscDefinition       "A measurement of the potassium in a biological specimen."^^xsd:string ;
        cts:cdiscSubmissionValue  "K"^^xsd:string ;
        cts:cdiscSynonyms         "Potassium"^^xsd:string ;
        cts:nciCode               "C64853"^^xsd:string ;
        cts:nciPreferredTerm      "Potassium Measurement"^^xsd:string ;
        mms:inValueDomain         :C65047 .

:C85494.C106528  a                mms:PermissibleValue ;
        cts:cdiscDefinition       "Hours squared times micromoles per liter (area under the moment curve)."^^xsd:string ;
        cts:cdiscSubmissionValue  "h2*umol/L"^^xsd:string ;
        cts:nciCode               "C106528"^^xsd:string ;
        cts:nciPreferredTerm      "Hour Squared Times Micromole Per Liter"^^xsd:string ;
        mms:inValueDomain         :C85494 .

:C67154.C74736  a                 mms:PermissibleValue ;
        cts:cdiscDefinition       "A measurement of the C (connecting) peptide of insulin in a biological specimen."^^xsd:string ;
        cts:cdiscSubmissionValue  "C-peptide"^^xsd:string ;
        cts:cdiscSynonyms         "C-peptide"^^xsd:string ;
        cts:nciCode               "C74736"^^xsd:string ;
        cts:nciPreferredTerm      "C-peptide Measurement"^^xsd:string ;
        mms:inValueDomain         :C67154 .

:C71620.C71321  a                 mms:PermissibleValue ;
        cts:cdiscDefinition       "An arbitrary dosing unit used predominantly for semisolid topical formulations such as cream, ointment, paste, etc. One fingertip unit is the amount of a product that is squeezed out from a standard tube with 5-millimeter diameter nozzle along an adult's fingertip. A fingertip length is defined from the tip of the index finger to the first finger crease. A fingertip dosing unit varies with age and size of the body. The average fingertip unit is equal to approximately 0.5 gram for an adult male and 0.4 gram for an adult female.(NCI)"^^xsd:string ;
        cts:cdiscSubmissionValue  "FINGERTIP UNIT"^^xsd:string ;
        cts:cdiscSynonyms         "Fingertip Unit"^^xsd:string ;
        cts:nciCode               "C71321"^^xsd:string ;
        cts:nciPreferredTerm      "Fingertip Dosing Unit"^^xsd:string ;
        mms:inValueDomain         :C71620 .

:C65047.C92265  a                 mms:PermissibleValue ;
        cts:cdiscDefinition       "A measurement of the HIV-1 p24 antigen in a biological specimen."^^xsd:string ;
        cts:cdiscSubmissionValue  "HIVI24AG"^^xsd:string ;
        cts:cdiscSynonyms         "HIV-1 p24 Antigen"^^xsd:string ;
        cts:nciCode               "C92265"^^xsd:string ;
        cts:nciPreferredTerm      "HIV-1 p24 Antigen Measurement"^^xsd:string ;
        mms:inValueDomain         :C65047 .

:C78734.C106566  a                mms:PermissibleValue ;
        cts:cdiscDefinition       "The liquid lying above a liquid, solid or semi-solid residue, which is separated by crystallization, precipitation or centrifugation of a serum sample. (NCI)"^^xsd:string ;
        cts:cdiscSubmissionValue  "SUPERNATANT, SERUM"^^xsd:string ;
        cts:nciCode               "C106566"^^xsd:string ;
        cts:nciPreferredTerm      "Serum Supernatant"^^xsd:string ;
        mms:inValueDomain         :C78734 .

:C66786.C17170  a                 mms:PermissibleValue ;
        cts:cdiscDefinition       "A country in Northern Africa, bordering the Red Sea, between Egypt and Eritrea. (NCI)"^^xsd:string ;
        cts:cdiscSubmissionValue  "SDN"^^xsd:string ;
        cts:cdiscSynonyms         "SUDAN"^^xsd:string ;
        cts:nciCode               "C17170"^^xsd:string ;
        cts:nciPreferredTerm      "Sudan"^^xsd:string ;
        mms:inValueDomain         :C66786 .

:C67154.C81961  a                 mms:PermissibleValue ;
        cts:cdiscDefinition       "A measurement of the factor VIII in a biological specimen."^^xsd:string ;
        cts:cdiscSubmissionValue  "Factor VIII"^^xsd:string ;
        cts:cdiscSynonyms         "Factor VIII; Anti-hemophilic Factor"^^xsd:string ;
        cts:nciCode               "C81961"^^xsd:string ;
        cts:nciPreferredTerm      "Factor VIII Measurement"^^xsd:string ;
        mms:inValueDomain         :C67154 .

:C71152.C62133  a                 mms:PermissibleValue ;
        cts:cdiscDefinition       "The minimum duration (time) of the QT interval, obtained from a set of measurements of the QT interval. The QT interval is defined as the time from the beginning of the QRS complex to the end of the T wave, representing the time it takes for the ventricles to depolarize and subsequently repolarize. In some cases, the Q wave will be absent, in which case the QT interval is measured from the beginning of the R wave to the end of the T wave. (NCI)"^^xsd:string ;
        cts:cdiscSubmissionValue  "Summary (Min) QT Duration"^^xsd:string ;
        cts:cdiscSynonyms         "Summary (Min) QT Duration"^^xsd:string ;
        cts:nciCode               "C62133"^^xsd:string ;
        cts:nciPreferredTerm      "Minimum QT Duration"^^xsd:string ;
        mms:inValueDomain         :C71152 .

:C85494.C73742  a                 mms:PermissibleValue ;
        cts:cdiscDefinition       "Milligrams per minute."^^xsd:string ;
        cts:cdiscSubmissionValue  "mg/min"^^xsd:string ;
        cts:nciCode               "C73742"^^xsd:string ;
        cts:nciPreferredTerm      "Milligram per Minute"^^xsd:string ;
        mms:inValueDomain         :C85494 .

:C85494.C85638  a                 mms:PermissibleValue ;
        cts:cdiscDefinition       "Hours times picograms per milliliter per milligram."^^xsd:string ;
        cts:cdiscSubmissionValue  "h*pg/mL/mg"^^xsd:string ;
        cts:cdiscSynonyms         "pg*h/mL/mg; h*pg/mg/mL; pg*h/mg/mL; h*pg/mL/mg"^^xsd:string ;
        cts:nciCode               "C85638"^^xsd:string ;
        cts:nciPreferredTerm      "Hour Times Picogram per Milliliter per Milligram"^^xsd:string ;
        mms:inValueDomain         :C85494 .

:C74456.C77637  a                 mms:PermissibleValue ;
        cts:cdiscDefinition       "Moist tissue lining the oral cavity, containing mucus secreting glands."^^xsd:string ;
        cts:cdiscSubmissionValue  "ORAL MUCOSA"^^xsd:string ;
        cts:nciCode               "C77637"^^xsd:string ;
        cts:nciPreferredTerm      "Oral Mucosa"^^xsd:string ;
        mms:inValueDomain         :C74456 .

:C85839.C92412  a                 mms:PermissibleValue ;
        cts:cdiscDefinition       "The volume of distribution associated with the terminal slope following extravascular administration divided by the fraction of dose absorbed, calculated using the observed value of the last non-zero concentration, divided by the weight."^^xsd:string ;
        cts:cdiscSubmissionValue  "VZFOW"^^xsd:string ;
        cts:cdiscSynonyms         "Vz Obs by F Norm by WT"^^xsd:string ;
        cts:nciCode               "C92412"^^xsd:string ;
        cts:nciPreferredTerm      "Volume of Distribution of Fraction Dose Observed Normalized by Weight"^^xsd:string ;
        mms:inValueDomain         :C85839 .

:C66726.C47892  a                 mms:PermissibleValue ;
        cts:cdiscDefinition       "A plug made of cotton, sponge, or oakum variously used in surgery to plug the nose, vagina, etc., for the control of hemorrhage or the absorption of secretions. (NCI)"^^xsd:string ;
        cts:cdiscSubmissionValue  "TAMPON"^^xsd:string ;
        cts:nciCode               "C47892"^^xsd:string ;
        cts:nciPreferredTerm      "Tampon Dosage Form"^^xsd:string ;
        mms:inValueDomain         :C66726 .

:C66768  a                        mms:EnumeratedValueDomain ;
        cts:cdiscDefinition       "A condition or event that is attributed to the adverse event and is the result or conclusion of the adverse event. (NCI)"^^xsd:string ;
        cts:cdiscSubmissionValue  "OUT"^^xsd:string ;
        cts:cdiscSynonyms         "Outcome of Event"^^xsd:string ;
        cts:codelistName          "Outcome of Event"^^xsd:string ;
        cts:isExtensibleCodelist  false ;
        cts:nciCode               "C66768"^^xsd:string ;
        cts:nciPreferredTerm      "CDISC SDTM Adverse Event Outcome Terminology"^^xsd:string .

:C85491.C86319  a                 mms:PermissibleValue ;
        cts:cdiscDefinition       "Any bacterial organism that can be assigned to the species Corynebacterium propinquum."^^xsd:string ;
        cts:cdiscSubmissionValue  "CORYNEBACTERIUM PROPINQUUM"^^xsd:string ;
        cts:nciCode               "C86319"^^xsd:string ;
        cts:nciPreferredTerm      "Corynebacterium propinquum"^^xsd:string ;
        mms:inValueDomain         :C85491 .

:C65047.C74650  a                 mms:PermissibleValue ;
        cts:cdiscDefinition       "A relative measurement (ratio or percentage) of the precursor (blast stage) plasma cells (antibody secreting cells derived from B cells via antigen stimulation) to all lymphocytes in a biological specimen."^^xsd:string ;
        cts:cdiscSubmissionValue  "PLSPCELY"^^xsd:string ;
        cts:cdiscSynonyms         "Precursor Plasma Cells/Lymphocytes"^^xsd:string ;
        cts:nciCode               "C74650"^^xsd:string ;
        cts:nciPreferredTerm      "Precursor Plasma Cell to Lymphocyte Ratio Measurement"^^xsd:string ;
        mms:inValueDomain         :C65047 .

:C85491.C86129  a                 mms:PermissibleValue ;
        cts:cdiscDefinition       "Any bacterial organism that can be assigned to the species Aeromonas schubertii."^^xsd:string ;
        cts:cdiscSubmissionValue  "AEROMONAS SCHUBERTII"^^xsd:string ;
        cts:nciCode               "C86129"^^xsd:string ;
        cts:nciPreferredTerm      "Aeromonas schubertii"^^xsd:string ;
        mms:inValueDomain         :C85491 .

:C74456.C102338  a                mms:PermissibleValue ;
        cts:cdiscDefinition       "An artery that arises from the left main coronary artery and is positioned between the left anterior descending coronary artery and the circumflex artery."^^xsd:string ;
        cts:cdiscSubmissionValue  "RAMUS INTERMEDIUS ARTERY"^^xsd:string ;
        cts:cdiscSynonyms         "RAMUS; RAMUS ARTERY; RAMUS INTERMEDIUS ARTERY SEGMENT"^^xsd:string ;
        cts:nciCode               "C102338"^^xsd:string ;
        cts:nciPreferredTerm      "Ramus Intermedius Artery"^^xsd:string ;
        mms:inValueDomain         :C74456 .

:C67154.C100122  a                mms:PermissibleValue ;
        cts:cdiscDefinition       "A measurement of the pepsinogen in a biological specimen."^^xsd:string ;
        cts:cdiscSubmissionValue  "Pepsinogen"^^xsd:string ;
        cts:cdiscSynonyms         "Pepsinogen"^^xsd:string ;
        cts:nciCode               "C100122"^^xsd:string ;
        cts:nciPreferredTerm      "Pepsinogen Measurement"^^xsd:string ;
        mms:inValueDomain         :C67154 .

:C85493.C92369  a                 mms:PermissibleValue ;
        cts:cdiscDefinition       "AUCTAU divided by TAU and then divided by the surface area."^^xsd:string ;
        cts:cdiscSubmissionValue  "Average Conc Norm by SA"^^xsd:string ;
        cts:cdiscSynonyms         "Average Conc Norm by SA"^^xsd:string ;
        cts:nciCode               "C92369"^^xsd:string ;
        cts:nciPreferredTerm      "Average Concentration Normalized by Surface Area"^^xsd:string ;
        mms:inValueDomain         :C85493 .

:C67152  a                        mms:EnumeratedValueDomain ;
        cts:cdiscDefinition       "Individual characteristics of a clinical trial, e.g. description of trial design, trial blinding schema, and primary objective of trial. (NCI)"^^xsd:string ;
        cts:cdiscSubmissionValue  "TSPARM"^^xsd:string ;
        cts:cdiscSynonyms         "Trial Summary Parameter Test Name"^^xsd:string ;
        cts:codelistName          "Trial Summary Parameter Test Name"^^xsd:string ;
        cts:isExtensibleCodelist  true ;
        cts:nciCode               "C67152"^^xsd:string ;
        cts:nciPreferredTerm      "CDISC SDTM Trial Summary Parameter Terminology by Name"^^xsd:string .

:C67154.C106514  a                mms:PermissibleValue ;
        cts:cdiscDefinition       "A measurement of the cytokeratin 19 fragment 21-1 in a biological specimen."^^xsd:string ;
        cts:cdiscSubmissionValue  "Cytokeratin Fragment 21-1"^^xsd:string ;
        cts:cdiscSynonyms         "Cytokeratin Fragment 21-1; Cytokeratin 19 Fragment; CYFRA21-1"^^xsd:string ;
        cts:nciCode               "C106514"^^xsd:string ;
        cts:nciPreferredTerm      "Cytokeratin Fragment 21-1 Measurement"^^xsd:string ;
        mms:inValueDomain         :C67154 .

:C74456.C52765  a                 mms:PermissibleValue ;
        cts:cdiscDefinition       "The third rib counting from the top of the rib cage down. (NCI)"^^xsd:string ;
        cts:cdiscSubmissionValue  "RIB 3"^^xsd:string ;
        cts:cdiscSynonyms         "Rib 3"^^xsd:string ;
        cts:nciCode               "C52765"^^xsd:string ;
        cts:nciPreferredTerm      "Rib 3"^^xsd:string ;
        mms:inValueDomain         :C74456 .

:C88025.C9360  a                  mms:PermissibleValue ;
        cts:cdiscDefinition       "A malignant neoplasm composed of lymphoblasts (lymphoid precursor cells)."^^xsd:string ;
        cts:cdiscSubmissionValue  "LYMPHOMA, LYMPHOBLASTIC, MALIGNANT"^^xsd:string ;
        cts:cdiscSynonyms         "PRECURSOR CELL LYMPHOBLASTIC LYMPHOMA; PRECURSOR LYMPHOBLASTIC LYMPHOMA"^^xsd:string ;
        cts:nciCode               "C9360"^^xsd:string ;
        cts:nciPreferredTerm      "Lymphoblastic Lymphoma"^^xsd:string ;
        mms:inValueDomain         :C88025 .

:C85491.C86921  a                 mms:PermissibleValue ;
        cts:cdiscDefinition       "Any bacterial organism that can be assigned to the genus Salmonella with serotype Newport."^^xsd:string ;
        cts:cdiscSubmissionValue  "SALMONELLA SEROTYPE NEWPORT"^^xsd:string ;
        cts:nciCode               "C86921"^^xsd:string ;
        cts:nciPreferredTerm      "Salmonella Serotype Newport"^^xsd:string ;
        mms:inValueDomain         :C85491 .

:C66786.C16369  a                 mms:PermissibleValue ;
        cts:cdiscDefinition       "A country in Western Africa, north of Ghana. (NCI)"^^xsd:string ;
        cts:cdiscSubmissionValue  "BFA"^^xsd:string ;
        cts:cdiscSynonyms         "BURKINA FASO"^^xsd:string ;
        cts:nciCode               "C16369"^^xsd:string ;
        cts:nciPreferredTerm      "Burkina Faso"^^xsd:string ;
        mms:inValueDomain         :C66786 .

:C65047.C64816  a                 mms:PermissibleValue ;
        cts:cdiscDefinition       "A measurement of the urobilinogen in a biological specimen."^^xsd:string ;
        cts:cdiscSubmissionValue  "UROBIL"^^xsd:string ;
        cts:cdiscSynonyms         "Urobilinogen"^^xsd:string ;
        cts:nciCode               "C64816"^^xsd:string ;
        cts:nciPreferredTerm      "Urobilinogen Measurement"^^xsd:string ;
        mms:inValueDomain         :C65047 .

:C85491.C86731  a                 mms:PermissibleValue ;
        cts:cdiscDefinition       "Any bacterial organism that can be assigned to the species Salmonella enterica."^^xsd:string ;
        cts:cdiscSubmissionValue  "SALMONELLA ENTERICA"^^xsd:string ;
        cts:nciCode               "C86731"^^xsd:string ;
        cts:nciPreferredTerm      "Salmonella enterica"^^xsd:string ;
        mms:inValueDomain         :C85491 .

:C103329.C103379  a               mms:PermissibleValue ;
        cts:cdiscDefinition       "This SDTM class describes the plan for the procedures to be followed in a clinical trial, including planned and actual timing of events, control group, method of allocating treatments, blinding methods, assignment of epochs that subjects pass through in the course of a trial."^^xsd:string ;
        cts:cdiscSubmissionValue  "TRIAL DESIGN"^^xsd:string ;
        cts:nciCode               "C103379"^^xsd:string ;
        cts:nciPreferredTerm      "CDISC Trial Design Class"^^xsd:string ;
        mms:inValueDomain         :C103329 .

:C71620.C42538  a                 mms:PermissibleValue ;
        cts:cdiscDefinition       "The candela is the basic unit of luminous intensity. It is the luminous intensity in a given direction of a small monochromatic light source at 540 terahertz emitting 1/683 watt per steradian in that direction. This is dependent upon the definitions of the meter, kilogram, and second.(NCI)"^^xsd:string ;
        cts:cdiscSubmissionValue  "cd"^^xsd:string ;
        cts:cdiscSynonyms         "Candela"^^xsd:string ;
        cts:nciCode               "C42538"^^xsd:string ;
        cts:nciPreferredTerm      "Candela"^^xsd:string ;
        mms:inValueDomain         :C71620 .

:C71620.C48511  a                 mms:PermissibleValue ;
        cts:cdiscDefinition       "A unit of radioactivity equal to one thousandth of a Curie or 37 megabecquerels, and corresponding to a radioactivity of 37 millions of atomic disintegrations per second.(NCI)"^^xsd:string ;
        cts:cdiscSubmissionValue  "mCi"^^xsd:string ;
        cts:cdiscSynonyms         "Millicurie"^^xsd:string ;
        cts:nciCode               "C48511"^^xsd:string ;
        cts:nciPreferredTerm      "Millicurie"^^xsd:string ;
        mms:inValueDomain         :C71620 .

:C85839.C92394  a                 mms:PermissibleValue ;
        cts:cdiscDefinition       "The last measurable (positive) excretion rate divided by the weight."^^xsd:string ;
        cts:cdiscSubmissionValue  "ERLSTW"^^xsd:string ;
        cts:cdiscSynonyms         "Last Meas Excretion Rate Norm by WT"^^xsd:string ;
        cts:nciCode               "C92394"^^xsd:string ;
        cts:nciPreferredTerm      "Last Measurable Excretion Rate Normalized by Weight"^^xsd:string ;
        mms:inValueDomain         :C85839 .

:C88025.C4151  a                  mms:PermissibleValue ;
        cts:cdiscDefinition       "A benign neoplasm comprising glands containing epithelial clear cells."^^xsd:string ;
        cts:cdiscSubmissionValue  "ADENOMA, CLEAR CELL, BENIGN"^^xsd:string ;
        cts:nciCode               "C4151"^^xsd:string ;
        cts:nciPreferredTerm      "Clear Cell Adenoma"^^xsd:string ;
        mms:inValueDomain         :C88025 .

:C85491.C86541  a                 mms:PermissibleValue ;
        cts:cdiscDefinition       "Any bacterial organism that can be assigned to the species Mycobacterium gordonae."^^xsd:string ;
        cts:cdiscSubmissionValue  "MYCOBACTERIUM GORDONAE"^^xsd:string ;
        cts:cdiscSynonyms         "MYCOBACTERIUM AQUAE"^^xsd:string ;
        cts:nciCode               "C86541"^^xsd:string ;
        cts:nciPreferredTerm      "Mycobacterium gordonae"^^xsd:string ;
        mms:inValueDomain         :C85491 .

:C85494.C85670  a                 mms:PermissibleValue ;
        cts:cdiscDefinition       "Liters per micromole per minute."^^xsd:string ;
        cts:cdiscSubmissionValue  "L/umol/min"^^xsd:string ;
        cts:cdiscSynonyms         "L/mcmol/min; L/min/umol; L/min/mcmol; L/umol/min"^^xsd:string ;
        cts:nciCode               "C85670"^^xsd:string ;
        cts:nciPreferredTerm      "Liter per Micromole per Minute"^^xsd:string ;
        mms:inValueDomain         :C85494 .

:C66786.C101224  a                mms:PermissibleValue ;
        cts:cdiscDefinition       "Three Caribbean islands that are part of the Lesser Antilles; Bonaire is east of Aruba and Curacao off the coast of Venezuela, Sint Eustatius and Saba are located south of Sint Maarten and northeast of Saint Kitts and Nevis. (NCI)"^^xsd:string ;
        cts:cdiscSubmissionValue  "BES"^^xsd:string ;
        cts:cdiscSynonyms         "BONAIRE, SINT EUSTATIUS AND SABA"^^xsd:string ;
        cts:nciCode               "C101224"^^xsd:string ;
        cts:nciPreferredTerm      "Bonaire, Sint Eustatius and Saba"^^xsd:string ;
        mms:inValueDomain         :C66786 .

:C65047.C88113  a                 mms:PermissibleValue ;
        cts:cdiscDefinition       "A measurement of the free, unbound cortisol in a biological specimen."^^xsd:string ;
        cts:cdiscSubmissionValue  "CORTFR"^^xsd:string ;
        cts:cdiscSynonyms         "Cortisol, Free"^^xsd:string ;
        cts:nciCode               "C88113"^^xsd:string ;
        cts:nciPreferredTerm      "Free Cortisol Measurement"^^xsd:string ;
        mms:inValueDomain         :C65047 .

:C85491.C86351  a                 mms:PermissibleValue ;
        cts:cdiscDefinition       "Any bacterial organism that can be assigned to the species Eikenella corrodens."^^xsd:string ;
        cts:cdiscSubmissionValue  "EIKENELLA CORRODENS"^^xsd:string ;
        cts:cdiscSynonyms         "CDC GROUP HB-1"^^xsd:string ;
        cts:nciCode               "C86351"^^xsd:string ;
        cts:nciPreferredTerm      "Eikenella corrodens"^^xsd:string ;
        mms:inValueDomain         :C85491 .

:C67154.C80171  a                 mms:PermissibleValue ;
        cts:cdiscDefinition       "A relative measurement (ratio or percentage) of total cholesterol to high-density lipoprotein cholesterol (HDL-C) in a biological specimen."^^xsd:string ;
        cts:cdiscSubmissionValue  "Cholesterol/HDL-Cholesterol"^^xsd:string ;
        cts:cdiscSynonyms         "Cholesterol/HDL-Cholesterol"^^xsd:string ;
        cts:nciCode               "C80171"^^xsd:string ;
        cts:nciPreferredTerm      "Cholesterol to HDL-Cholesterol Ratio Measurement"^^xsd:string ;
        mms:inValueDomain         :C67154 .

:C85491.C86161  a                 mms:PermissibleValue ;
        cts:cdiscDefinition       "Any bacterial organism that can be assigned to the species Bacillus cereus."^^xsd:string ;
        cts:cdiscSubmissionValue  "BACILLUS CEREUS"^^xsd:string ;
        cts:nciCode               "C86161"^^xsd:string ;
        cts:nciPreferredTerm      "Bacillus cereus"^^xsd:string ;
        mms:inValueDomain         :C85491 .

:C99074.C25353  a                 mms:PermissibleValue ;
        cts:cdiscDefinition       "Pertaining to a point below a given reference point."^^xsd:string ;
        cts:cdiscSubmissionValue  "INFERIOR"^^xsd:string ;
        cts:nciCode               "C25353"^^xsd:string ;
        cts:nciPreferredTerm      "Inferior"^^xsd:string ;
        mms:inValueDomain         :C99074 .

:C65047.C82000  a                 mms:PermissibleValue ;
        cts:cdiscDefinition       "A measurement of the apolipoprotein AII in a biological specimen."^^xsd:string ;
        cts:cdiscSubmissionValue  "APOA2"^^xsd:string ;
        cts:cdiscSynonyms         "Apolipoprotein AII"^^xsd:string ;
        cts:nciCode               "C82000"^^xsd:string ;
        cts:nciPreferredTerm      "Apolipoprotein AII Measurement"^^xsd:string ;
        mms:inValueDomain         :C65047 .

:C96780.C103443  a                mms:PermissibleValue ;
        cts:cdiscDefinition       "The identification of a target tumor located at or near the lymph node."^^xsd:string ;
        cts:cdiscSubmissionValue  "TARGET NODAL"^^xsd:string ;
        cts:nciCode               "C103443"^^xsd:string ;
        cts:nciPreferredTerm      "Target Nodal Tumor Identification"^^xsd:string ;
        mms:inValueDomain         :C96780 .

:C78734.C13233  a                 mms:PermissibleValue ;
        cts:cdiscDefinition       "Fluid, cells or cellular debris that escapes from the blood vessels and accumulates in nearby tissues. It is the result of inflammation and is rich in proteins."^^xsd:string ;
        cts:cdiscSubmissionValue  "EXUDATE"^^xsd:string ;
        cts:nciCode               "C13233"^^xsd:string ;
        cts:nciPreferredTerm      "Exudate"^^xsd:string ;
        mms:inValueDomain         :C78734 .

:C65047.C79442  a                 mms:PermissibleValue ;
        cts:cdiscDefinition       "A relative measurement (ratio or percentage) of the MM-type creatine kinase to total creatine kinase in a biological specimen."^^xsd:string ;
        cts:cdiscSubmissionValue  "CKMMCK"^^xsd:string ;
        cts:cdiscSynonyms         "Creatine Kinase MM/Total Creatine Kinase"^^xsd:string ;
        cts:nciCode               "C79442"^^xsd:string ;
        cts:nciPreferredTerm      "Creatine Kinase MM to Total Creatine Kinase Ratio Measurement"^^xsd:string ;
        mms:inValueDomain         :C65047 .

:C65047.C74613  a                 mms:PermissibleValue ;
        cts:cdiscDefinition       "A measurement of the malignant lymphocytes in a biological specimen."^^xsd:string ;
        cts:cdiscSubmissionValue  "LYMMCE"^^xsd:string ;
        cts:cdiscSynonyms         "Lymphoma Cells"^^xsd:string ;
        cts:nciCode               "C74613"^^xsd:string ;
        cts:nciPreferredTerm      "Lymphoma Cell Count"^^xsd:string ;
        mms:inValueDomain         :C65047 .

:C65047.C81978  a                 mms:PermissibleValue ;
        cts:cdiscDefinition       "A measurement of the aspartate aminotransferase antigen in a biological specimen."^^xsd:string ;
        cts:cdiscSubmissionValue  "ASTAG"^^xsd:string ;
        cts:cdiscSynonyms         "Aspartate Aminotransferase Antigen; SGOT Antigen"^^xsd:string ;
        cts:nciCode               "C81978"^^xsd:string ;
        cts:nciPreferredTerm      "Aspartate Aminotransferase Antigen Measurement"^^xsd:string ;
        mms:inValueDomain         :C65047 .

:C65047.C103437  a                mms:PermissibleValue ;
        cts:cdiscDefinition       "A measurement of the prostaglandin F2 alpha in a biological specimen."^^xsd:string ;
        cts:cdiscSubmissionValue  "PGF2A"^^xsd:string ;
        cts:cdiscSynonyms         "Prostaglandin F2 Alpha"^^xsd:string ;
        cts:nciCode               "C103437"^^xsd:string ;
        cts:nciPreferredTerm      "Prostaglandin F2 Alpha Measurement"^^xsd:string ;
        mms:inValueDomain         :C65047 .

:C67154.C98738  a                 mms:PermissibleValue ;
        cts:cdiscDefinition       "A measurement of the Herpes Simplex virus 1 IgM antibodies in a biological specimen."^^xsd:string ;
        cts:cdiscSubmissionValue  "Herpes Simplex Virus 1 IgM Antibody"^^xsd:string ;
        cts:cdiscSynonyms         "Herpes Simplex Virus 1 IgM Antibody"^^xsd:string ;
        cts:nciCode               "C98738"^^xsd:string ;
        cts:nciPreferredTerm      "Herpes Simplex Virus 1 IgM Antibody Measurement"^^xsd:string ;
        mms:inValueDomain         :C67154 .

:C74456.C12761  a                 mms:PermissibleValue ;
        cts:cdiscDefinition       "The second cranial nerve. (NCI)"^^xsd:string ;
        cts:cdiscSubmissionValue  "OPTIC NERVE"^^xsd:string ;
        cts:cdiscSynonyms         "Optic Nerve"^^xsd:string ;
        cts:nciCode               "C12761"^^xsd:string ;
        cts:nciPreferredTerm      "Optic Nerve"^^xsd:string ;
        mms:inValueDomain         :C74456 .

:C71150.C61395  a                 mms:PermissibleValue ;
        cts:cdiscDefinition       "An electrocardiographic finding in which the R wave of a premature ventricular complex occurs on top of the T wave of the preceding beat."^^xsd:string ;
        cts:cdiscSubmissionValue  "R ON T PHENOMENON"^^xsd:string ;
        cts:cdiscSynonyms         "R on T phenomenon"^^xsd:string ;
        cts:nciCode               "C61395"^^xsd:string ;
        cts:nciPreferredTerm      "R On T Phenomenon"^^xsd:string ;
        mms:inValueDomain         :C71150 .

:C66734.C53483  a                 mms:PermissibleValue ;
        cts:cdiscDefinition       "The trial summary information domain is not subject oriented. It contains one record for each trial summary characteristic."^^xsd:string ;
        cts:cdiscSubmissionValue  "TS"^^xsd:string ;
        cts:cdiscSynonyms         "Trial Summary"^^xsd:string ;
        cts:nciCode               "C53483"^^xsd:string ;
        cts:nciPreferredTerm      "Trial Summary Domain"^^xsd:string ;
        mms:inValueDomain         :C66734 .

:C65047.C64798  a                 mms:PermissibleValue ;
        cts:cdiscDefinition       "A quantitative measurement of the mean amount of hemoglobin per erythrocytes in a specified volume of a biological specimen."^^xsd:string ;
        cts:cdiscSubmissionValue  "MCHC"^^xsd:string ;
        cts:cdiscSynonyms         "Ery. Mean Corpuscular HGB Concentration"^^xsd:string ;
        cts:nciCode               "C64798"^^xsd:string ;
        cts:nciPreferredTerm      "Erythrocyte Mean Corpuscular Hemoglobin Concentration"^^xsd:string ;
        mms:inValueDomain         :C65047 .

:C88025.C8559  a                  mms:PermissibleValue ;
        cts:cdiscDefinition       "A malignant neoplasm arising from paraganglia located along nerves composed of neoplastic neuroectodermal chromaffin cells."^^xsd:string ;
        cts:cdiscSubmissionValue  "PARAGANGLIOMA, MALIGNANT"^^xsd:string ;
        cts:cdiscSynonyms         "MALIGNANT TUMOR OF THE PARAGANGLION; MALIGNANT TUMOR OF PARAGANGLION; MALIGNANT PARAGANGLIONIC NEOPLASM; MALIGNANT PARAGANGLIONIC TUMOR; MALIGNANT NEOPLASM OF PARAGANGLION; MALIGNANT PARAGANGLION NEOPLASM; MALIGNANT PARAGANGLION TUMOR; PARAGANGLION NEOPLASM; MALIGNANT; MALIGNANT NEOPLASM OF THE PARAGANGLION"^^xsd:string ;
        cts:nciCode               "C8559"^^xsd:string ;
        cts:nciPreferredTerm      "Malignant Paraganglioma"^^xsd:string ;
        mms:inValueDomain         :C88025 .

:C85492.C103512  a                mms:PermissibleValue ;
        cts:cdiscDefinition       "An imaging technique that utilizes positron emission tomography and computed tomography in a single machine."^^xsd:string ;
        cts:cdiscSubmissionValue  "PET/CT SCAN"^^xsd:string ;
        cts:nciCode               "C103512"^^xsd:string ;
        cts:nciPreferredTerm      "Positron Emission Tomography and Computed Tomography Scan"^^xsd:string ;
        mms:inValueDomain         :C85492 .

:C74456.C12381  a                 mms:PermissibleValue ;
        cts:cdiscDefinition       "A blind pouch-like commencement of the colon in the right lower quadrant of the abdomen at the end of the small intestine and the start of the large intestine. (NCI)"^^xsd:string ;
        cts:cdiscSubmissionValue  "CECUM"^^xsd:string ;
        cts:cdiscSynonyms         "Cecal; Cecum"^^xsd:string ;
        cts:nciCode               "C12381"^^xsd:string ;
        cts:nciPreferredTerm      "Cecum"^^xsd:string ;
        mms:inValueDomain         :C74456 .

:C65047.C80206  a                 mms:PermissibleValue ;
        cts:cdiscDefinition       "A measurement of the saturated non-esterified fatty acids in a biological specimen."^^xsd:string ;
        cts:cdiscSubmissionValue  "FATACFRS"^^xsd:string ;
        cts:cdiscSynonyms         "Free Fatty Acid, Saturated; Non-esterified Fatty Acid, Saturated"^^xsd:string ;
        cts:nciCode               "C80206"^^xsd:string ;
        cts:nciPreferredTerm      "Saturated Non-esterified Fatty Acids Measurement"^^xsd:string ;
        mms:inValueDomain         :C65047 .

:C71620.C68898  a                 mms:PermissibleValue ;
        cts:cdiscDefinition       "A unit of measurement of viable bacterial organisms in a unit mass of substance of interest defined as the number of colony forming units in one gram of substance.(NCI)"^^xsd:string ;
        cts:cdiscSubmissionValue  "CFU/g"^^xsd:string ;
        cts:cdiscSynonyms         "Colony Forming Unit per Gram"^^xsd:string ;
        cts:nciCode               "C68898"^^xsd:string ;
        cts:nciPreferredTerm      "Colony Forming Unit per Gram"^^xsd:string ;
        mms:inValueDomain         :C71620 .

:C101862.C99929  a                mms:PermissibleValue ;
        cts:cdiscDefinition       "The pacing and/or sensing problem associated with high impedance due to a poor connection between a lead and generator caused by a loose set screw."^^xsd:string ;
        cts:cdiscSubmissionValue  "SET SCREW PROBLEM"^^xsd:string ;
        cts:nciCode               "C99929"^^xsd:string ;
        cts:nciPreferredTerm      "Cardiac Device Set Screw Problem"^^xsd:string ;
        mms:inValueDomain         :C101862 .

:C71620.C42570  a                 mms:PermissibleValue ;
        cts:cdiscDefinition       "A unit of volume or capacity equal to the volume of a cube with edges one meter in length. It is equal to 1,000 liters; 1,000 cubic decimeters; 10(E6) cubic centimeters; 25.3 cubic feet; 6.29 barrels.(NCI)"^^xsd:string ;
        cts:cdiscSubmissionValue  "m3"^^xsd:string ;
        cts:cdiscSynonyms         "Cubic Meter"^^xsd:string ;
        cts:nciCode               "C42570"^^xsd:string ;
        cts:nciPreferredTerm      "Cubic Meter"^^xsd:string ;
        mms:inValueDomain         :C71620 .

:C67154.C74731  a                 mms:PermissibleValue ;
        cts:cdiscDefinition       "A measurement of the aldolase enzyme in a biological specimen."^^xsd:string ;
        cts:cdiscSubmissionValue  "Aldolase"^^xsd:string ;
        cts:cdiscSynonyms         "Aldolase"^^xsd:string ;
        cts:nciCode               "C74731"^^xsd:string ;
        cts:nciPreferredTerm      "Aldolase Measurement"^^xsd:string ;
        mms:inValueDomain         :C67154 .

:C71620.C69149  a                 mms:PermissibleValue ;
        cts:cdiscDefinition       "A unit of time equal to one millionth of a second. (NCI)"^^xsd:string ;
        cts:cdiscSubmissionValue  "usec"^^xsd:string ;
        cts:cdiscSynonyms         "Microsecond"^^xsd:string ;
        cts:nciCode               "C69149"^^xsd:string ;
        cts:nciPreferredTerm      "usec"^^xsd:string ;
        mms:inValueDomain         :C71620 .

:C85839.C102385  a                mms:PermissibleValue ;
        cts:cdiscDefinition       "The percentage of the administered dose that is recovered from the specimen type specified in PPSPEC, over the interval between T1 and T2 divided by weight."^^xsd:string ;
        cts:cdiscSubmissionValue  "RCPCINTW"^^xsd:string ;
        cts:cdiscSynonyms         "Pct Rec from T1 to T2 Norm by WT"^^xsd:string ;
        cts:nciCode               "C102385"^^xsd:string ;
        cts:nciPreferredTerm      "Percent Recovered from T1 to T2 Normalized by Weight"^^xsd:string ;
        mms:inValueDomain         :C85839 .

:C65047.C92260  a                 mms:PermissibleValue ;
        cts:cdiscDefinition       "A measurement of the hemoglobin B in a biological specimen."^^xsd:string ;
        cts:cdiscSubmissionValue  "HGBB"^^xsd:string ;
        cts:cdiscSynonyms         "Hemoglobin B"^^xsd:string ;
        cts:nciCode               "C92260"^^xsd:string ;
        cts:nciPreferredTerm      "Hemoglobin B Measurement"^^xsd:string ;
        mms:inValueDomain         :C65047 .

:C88025.C3400  a                  mms:PermissibleValue ;
        cts:cdiscDefinition       "A malignant neoplasm that usually arises in the synovial membranes of the joints and the synovial cells of the tendons and bursae."^^xsd:string ;
        cts:cdiscSubmissionValue  "SARCOMA, SYNOVIAL, MALIGNANT"^^xsd:string ;
        cts:cdiscSynonyms         "SS"^^xsd:string ;
        cts:nciCode               "C3400"^^xsd:string ;
        cts:nciPreferredTerm      "Synovial Sarcoma"^^xsd:string ;
        mms:inValueDomain         :C88025 .

:C88025.C4304  a                  mms:PermissibleValue ;
        cts:cdiscDefinition       "A malignant neoplasm of bone comprised of osteoclast-like giant cells and mononuclear cells."^^xsd:string ;
        cts:cdiscSubmissionValue  "OSTEOCLASTOMA, MALIGNANT"^^xsd:string ;
        cts:cdiscSynonyms         "GIANT CELL SARCOMA OF THE BONE; GIANT CELL SARCOMA OF BONE; GIANT CELL BONE SARCOMA; DEDIFFERENTIATED GIANT CELL TUMOR"^^xsd:string ;
        cts:nciCode               "C4304"^^xsd:string ;
        cts:nciPreferredTerm      "Malignant Giant Cell Tumor of Bone"^^xsd:string ;
        mms:inValueDomain         :C88025 .

:C65047.C74785  a                 mms:PermissibleValue ;
        cts:cdiscDefinition       "A measurement of the free testosterone in a biological specimen."^^xsd:string ;
        cts:cdiscSubmissionValue  "TESTOSFR"^^xsd:string ;
        cts:cdiscSynonyms         "Testosterone, Free"^^xsd:string ;
        cts:nciCode               "C74785"^^xsd:string ;
        cts:nciPreferredTerm      "Free Testosterone Measurement"^^xsd:string ;
        mms:inValueDomain         :C65047 .

:C85839.C92357  a                 mms:PermissibleValue ;
        cts:cdiscDefinition       "The area under the urinary excretion rate curve (AURC) extrapolated to infinity, calculated using the observed value of the last excretion rate, divided by the weight."^^xsd:string ;
        cts:cdiscSubmissionValue  "AURCIFOW"^^xsd:string ;
        cts:cdiscSynonyms         "AURC Infinity Obs Norm by WT"^^xsd:string ;
        cts:nciCode               "C92357"^^xsd:string ;
        cts:nciPreferredTerm      "AURC Infinity Observed Normalized by Weight"^^xsd:string ;
        mms:inValueDomain         :C85839 .

:C85491.C86504  a                 mms:PermissibleValue ;
        cts:cdiscDefinition       "Any bacterial organism that can be assigned to the species Listeria welshimeri."^^xsd:string ;
        cts:cdiscSubmissionValue  "LISTERIA WELSHIMERI"^^xsd:string ;
        cts:nciCode               "C86504"^^xsd:string ;
        cts:nciPreferredTerm      "Listeria welshimeri"^^xsd:string ;
        mms:inValueDomain         :C85491 .

:C85491.C86314  a                 mms:PermissibleValue ;
        cts:cdiscDefinition       "Any bacterial organism that can be assigned to the species Corynebacterium kutscheri."^^xsd:string ;
        cts:cdiscSubmissionValue  "CORYNEBACTERIUM KUTSCHERI"^^xsd:string ;
        cts:nciCode               "C86314"^^xsd:string ;
        cts:nciPreferredTerm      "Corynebacterium kutscheri"^^xsd:string ;
        mms:inValueDomain         :C85491 .

:C67154.C100447  a                mms:PermissibleValue ;
        cts:cdiscDefinition       "An assessment of beta-cell function and insulin resistance based on fasting blood glucose and insulin concentrations."^^xsd:string ;
        cts:cdiscSubmissionValue  "Homostat Model Assess of Insulin Rstn"^^xsd:string ;
        cts:cdiscSynonyms         "Homostat Model Assess of Insulin Rstn; Homeostatic Model Assessment of Insulin Resistance"^^xsd:string ;
        cts:nciCode               "C100447"^^xsd:string ;
        cts:nciPreferredTerm      "Homeostatic Model Assessment of Insulin Resistance"^^xsd:string ;
        mms:inValueDomain         :C67154 .

:C66734.C49622  a                 mms:PermissibleValue ;
        cts:cdiscDefinition       "Measurements including but not limited to blood pressure, temperature, respiration, body surface area, BMI, height and weight."^^xsd:string ;
        cts:cdiscSubmissionValue  "VS"^^xsd:string ;
        cts:cdiscSynonyms         "Vital Signs"^^xsd:string ;
        cts:nciCode               "C49622"^^xsd:string ;
        cts:nciPreferredTerm      "Vital Signs Domain"^^xsd:string ;
        mms:inValueDomain         :C66734 .

:C85491.C86124  a                 mms:PermissibleValue ;
        cts:cdiscDefinition       "Any bacteria that is not assigned to the species level but can be assigned to the Aeromonas genus level."^^xsd:string ;
        cts:cdiscSubmissionValue  "AEROMONAS"^^xsd:string ;
        cts:nciCode               "C86124"^^xsd:string ;
        cts:nciPreferredTerm      "Aeromonas"^^xsd:string ;
        mms:inValueDomain         :C85491 .

:C71620.C18064  a                 mms:PermissibleValue ;
        cts:cdiscDefinition       "The special unit for absorbed radiation dose, which is the amount of energy from any type of ionizing radiation (e.g., alpha, beta, gamma, neutrons, etc.) deposited in any medium (e.g., water, tissue, air). A dose of one rad means the absorption of 100 ergs per gram of absorbing tissue. One rad is equal to 0.01 gray.(NCI)"^^xsd:string ;
        cts:cdiscSubmissionValue  "Rad"^^xsd:string ;
        cts:cdiscSynonyms         "Rad"^^xsd:string ;
        cts:nciCode               "C18064"^^xsd:string ;
        cts:nciPreferredTerm      "Rad"^^xsd:string ;
        mms:inValueDomain         :C71620 .

:C66733.C49508  a                 mms:PermissibleValue ;
        cts:cdiscDefinition       "Of considerable or relatively great size, extent, or capacity. (NCI)"^^xsd:string ;
        cts:cdiscSubmissionValue  "LARGE"^^xsd:string ;
        cts:nciCode               "C49508"^^xsd:string ;
        cts:nciPreferredTerm      "Large"^^xsd:string ;
        mms:inValueDomain         :C66733 .

:C71620.C67405  a                 mms:PermissibleValue ;
        cts:cdiscDefinition       "Microinternational units per milliliter."^^xsd:string ;
        cts:cdiscSubmissionValue  "uIU/mL"^^xsd:string ;
        cts:cdiscSynonyms         "Micro-International Unit per milliliter; mIU/L; mcIU/mL; uIU/mL"^^xsd:string ;
        cts:nciCode               "C67405"^^xsd:string ;
        cts:nciPreferredTerm      "uIU/mL"^^xsd:string ;
        mms:inValueDomain         :C71620 .

:C74456.C89807  a                 mms:PermissibleValue ;
        cts:cdiscDefinition       "The skin which covers the top of the head and which is usually covered by hair. (NCI)"^^xsd:string ;
        cts:cdiscSubmissionValue  "SCALP"^^xsd:string ;
        cts:nciCode               "C89807"^^xsd:string ;
        cts:nciPreferredTerm      "Scalp"^^xsd:string ;
        mms:inValueDomain         :C74456 .

:C74456.C102333  a                mms:PermissibleValue ;
        cts:cdiscDefinition       "A condyloid synovial joint within the third digit of the hand connecting the proximal and middle phalanges."^^xsd:string ;
        cts:cdiscSubmissionValue  "PROXIMAL INTERPHALANGEAL JOINT 3"^^xsd:string ;
        cts:cdiscSynonyms         "PIP3"^^xsd:string ;
        cts:nciCode               "C102333"^^xsd:string ;
        cts:nciPreferredTerm      "Proximal Interphalangeal Joint 3"^^xsd:string ;
        mms:inValueDomain         :C74456 .

:C65047.C100448  a                mms:PermissibleValue ;
        cts:cdiscDefinition       "A measurement of the amount of unbound glycerol in a biological specimen."^^xsd:string ;
        cts:cdiscSubmissionValue  "GLYCRLFR"^^xsd:string ;
        cts:cdiscSynonyms         "Free Glycerol; Free Glycerin"^^xsd:string ;
        cts:nciCode               "C100448"^^xsd:string ;
        cts:nciPreferredTerm      "Free Glycerol Measurement"^^xsd:string ;
        mms:inValueDomain         :C65047 .

:C65047.C80188  a                 mms:PermissibleValue ;
        cts:cdiscDefinition       "A measurement of the high-density lipoprotein (HDL) cholesterol subclass 3 in a biological specimen."^^xsd:string ;
        cts:cdiscSubmissionValue  "HDL3"^^xsd:string ;
        cts:cdiscSynonyms         "HDL-Cholesterol Subclass 3"^^xsd:string ;
        cts:nciCode               "C80188"^^xsd:string ;
        cts:nciPreferredTerm      "HDL-Cholesterol Subclass 3 Measurement"^^xsd:string ;
        mms:inValueDomain         :C65047 .

:C65047.C96668  a                 mms:PermissibleValue ;
        cts:cdiscDefinition       "A measurement of the hexokinase in a biological specimen."^^xsd:string ;
        cts:cdiscSubmissionValue  "HEXK"^^xsd:string ;
        cts:cdiscSynonyms         "Hexokinase"^^xsd:string ;
        cts:nciCode               "C96668"^^xsd:string ;
        cts:nciPreferredTerm      "Hexokinase Measurement"^^xsd:string ;
        mms:inValueDomain         :C65047 .

:C88025.C3762  a                  mms:PermissibleValue ;
        cts:cdiscDefinition       "A benign neoplasm arising from mesothelial cells."^^xsd:string ;
        cts:cdiscSubmissionValue  "MESOTHELIOMA, BENIGN"^^xsd:string ;
        cts:cdiscSynonyms         "ADENOMATOID TUMOR, BENIGN; BENIGN MESOTHELIOMA; MESOTHELIOMA, BENIGN; BENIGN NEOPLASM OF MESOTHELIUM; BENIGN MESOTHELIAL NEOPLASM; BENIGN TUMOR OF MESOTHELIUM; BENIGN MESOTHELIAL TUMOR; BENIGN LOCALIZED EPITHELIAL MESOTHELIOMA; BENIGN TUMOR OF THE MESOTHELIUM; BENIGN NEOPLASM OF THE MESOTHELIUM"^^xsd:string ;
        cts:nciCode               "C3762"^^xsd:string ;
        cts:nciPreferredTerm      "Adenomatoid Tumor"^^xsd:string ;
        mms:inValueDomain         :C88025 .

:C66732.C20197  a                 mms:PermissibleValue ;
        cts:cdiscDefinition       "A person who belongs to the sex that normally produces sperm. The term is used to indicate biological sex distinctions, cultural gender role distinctions, or both. (NCI)"^^xsd:string ;
        cts:cdiscSubmissionValue  "M"^^xsd:string ;
        cts:cdiscSynonyms         "Male"^^xsd:string ;
        cts:nciCode               "C20197"^^xsd:string ;
        cts:nciPreferredTerm      "Male"^^xsd:string ;
        mms:inValueDomain         :C66732 .

:C74456.C12724  a                 mms:PermissibleValue ;
        cts:cdiscDefinition       "The space in which the vocal cords are located. (NCI)"^^xsd:string ;
        cts:cdiscSubmissionValue  "GLOTTIS"^^xsd:string ;
        cts:cdiscSynonyms         "Glottis"^^xsd:string ;
        cts:nciCode               "C12724"^^xsd:string ;
        cts:nciPreferredTerm      "Glottis"^^xsd:string ;
        mms:inValueDomain         :C74456 .

:C74456.C52760  a                 mms:PermissibleValue ;
        cts:cdiscDefinition       "The eighth rib counting from the top of the rib cage down. (NCI)"^^xsd:string ;
        cts:cdiscSubmissionValue  "RIB 8"^^xsd:string ;
        cts:cdiscSynonyms         "Rib 8"^^xsd:string ;
        cts:nciCode               "C52760"^^xsd:string ;
        cts:nciPreferredTerm      "Rib 8"^^xsd:string ;
        mms:inValueDomain         :C74456 .

:C85491.C86866  a                 mms:PermissibleValue ;
        cts:cdiscDefinition       "Any bacteria that is not assigned to the species level but can be assigned to the Zimmermannella genus level."^^xsd:string ;
        cts:cdiscSubmissionValue  "ZIMMERMANNELLA"^^xsd:string ;
        cts:nciCode               "C86866"^^xsd:string ;
        cts:nciPreferredTerm      "Zimmermannella"^^xsd:string ;
        mms:inValueDomain         :C85491 .

:C85492.C92300  a                 mms:PermissibleValue ;
        cts:cdiscDefinition       "A microscopy staining method that utilizes luxol fast blue, an alcohol soluble copper phthalocyanine dye, and cresyl violet, an organic compound that is commonly used as a counter stain, to determine the presence of myelin as well as helicobacter and campylobacter bacterial species."^^xsd:string ;
        cts:cdiscSubmissionValue  "LUXOL FAST BLUE AND CRESYL VIOLET STAIN"^^xsd:string ;
        cts:nciCode               "C92300"^^xsd:string ;
        cts:nciPreferredTerm      "Luxol Fast Blue and Cresyl Violet Staining Method"^^xsd:string ;
        mms:inValueDomain         :C85492 .

:C74456.C88143  a                 mms:PermissibleValue ;
        cts:cdiscDefinition       "A lymph node located along the external iliac artery. (NCI)"^^xsd:string ;
        cts:cdiscSubmissionValue  "EXTERNAL ILIAC LYMPH NODE"^^xsd:string ;
        cts:nciCode               "C88143"^^xsd:string ;
        cts:nciPreferredTerm      "External Iliac Lymph Node"^^xsd:string ;
        mms:inValueDomain         :C74456 .

:C85491.C86676  a                 mms:PermissibleValue ;
        cts:cdiscDefinition       "Any bacterial organism that can be assigned to the species Prevotella oris."^^xsd:string ;
        cts:cdiscSubmissionValue  "PREVOTELLA ORIS"^^xsd:string ;
        cts:cdiscSynonyms         "BACTEROIDES ORIS"^^xsd:string ;
        cts:nciCode               "C86676"^^xsd:string ;
        cts:nciPreferredTerm      "Prevotella oris"^^xsd:string ;
        mms:inValueDomain         :C85491 .

:C88025.C4286  a                  mms:PermissibleValue ;
        cts:cdiscDefinition       "A malignant germ-cell neoplasm derived from pluripotent cells and consisting of components from one or more of the three germ-cell layers."^^xsd:string ;
        cts:cdiscSubmissionValue  "TERATOMA, MALIGNANT"^^xsd:string ;
        cts:cdiscSynonyms         "IMMATURE TERATOMA"^^xsd:string ;
        cts:nciCode               "C4286"^^xsd:string ;
        cts:nciPreferredTerm      "Immature Teratoma"^^xsd:string ;
        mms:inValueDomain         :C88025 .

:C85839.C85823  a                 mms:PermissibleValue ;
        cts:cdiscDefinition       "The midpoint of collection interval associated with the maximum excretion rate."^^xsd:string ;
        cts:cdiscSubmissionValue  "ERTMAX"^^xsd:string ;
        cts:cdiscSynonyms         "Time of Max Excretion Rate"^^xsd:string ;
        cts:nciCode               "C85823"^^xsd:string ;
        cts:nciPreferredTerm      "Time of Maximum Observed Excretion Rate"^^xsd:string ;
        mms:inValueDomain         :C85839 .

:C88025.C3192  a                  mms:PermissibleValue ;
        cts:cdiscDefinition       "A benign neoplasm composed of adipose tissue."^^xsd:string ;
        cts:cdiscSubmissionValue  "LIPOMA, BENIGN"^^xsd:string ;
        cts:nciCode               "C3192"^^xsd:string ;
        cts:nciPreferredTerm      "Lipoma"^^xsd:string ;
        mms:inValueDomain         :C88025 .

:C71150.C71066  a                 mms:PermissibleValue ;
        cts:cdiscDefinition       "Electrocardiographic finding showing a current of injury in leads corresponding to the anatomic region of the inferior wall of the heart. (NCI)"^^xsd:string ;
        cts:cdiscSubmissionValue  "ACUTE INFERIOR WALL MYOCARDIAL INFARCTION"^^xsd:string ;
        cts:cdiscSynonyms         "Acute Inferior Wall Myocardial Infarction; Acute Inferior MI"^^xsd:string ;
        cts:nciCode               "C71066"^^xsd:string ;
        cts:nciPreferredTerm      "Acute Inferior Myocardial Infarction by ECG Finding"^^xsd:string ;
        mms:inValueDomain         :C71150 .

:C66786.C16364  a                 mms:PermissibleValue ;
        cts:cdiscDefinition       "A country in Eastern South America, bordering the Atlantic Ocean. (NCI)"^^xsd:string ;
        cts:cdiscSubmissionValue  "BRA"^^xsd:string ;
        cts:cdiscSynonyms         "BRAZIL"^^xsd:string ;
        cts:nciCode               "C16364"^^xsd:string ;
        cts:nciPreferredTerm      "Brazil"^^xsd:string ;
        mms:inValueDomain         :C66786 .

:C101856.C51996  a                mms:PermissibleValue ;
        cts:cdiscDefinition       "Elective procedures can be deferred without increased risk of compromised outcome. Patient's clinical condition is currently stable and has been stable in the days/weeks prior. The clinical situation does not demand that the procedure take place at a specified time."^^xsd:string ;
        cts:cdiscSubmissionValue  "ELECTIVE"^^xsd:string ;
        cts:nciCode               "C51996"^^xsd:string ;
        cts:nciPreferredTerm      "Elective Surgical Procedure"^^xsd:string ;
        mms:inValueDomain         :C101856 .

:C85491.C86486  a                 mms:PermissibleValue ;
        cts:cdiscDefinition       "Any bacteria that is not assigned to the species level but can be assigned to the Leclercia genus level."^^xsd:string ;
        cts:cdiscSubmissionValue  "LECLERCIA"^^xsd:string ;
        cts:nciCode               "C86486"^^xsd:string ;
        cts:nciPreferredTerm      "Leclercia"^^xsd:string ;
        mms:inValueDomain         :C85491 .

:C66786.C17268  a                 mms:PermissibleValue ;
        cts:cdiscDefinition       "A country in Southern Africa, between South Africa and Zambia. (NCI)"^^xsd:string ;
        cts:cdiscSubmissionValue  "ZWE"^^xsd:string ;
        cts:cdiscSynonyms         "ZIMBABWE"^^xsd:string ;
        cts:nciCode               "C17268"^^xsd:string ;
        cts:nciPreferredTerm      "Zimbabwe"^^xsd:string ;
        mms:inValueDomain         :C66786 .

:C103329.C103374  a               mms:PermissibleValue ;
        cts:cdiscDefinition       "This SDTM class captures investigational, therapeutic and other treatments that are administered to the subject (with some actual or expected physiological effect) either as specified by the study protocol (e.g., exposure to study drug), coincident with the study assessment period (e.g., concomitant medications), or self-administered by the subject (such as use of alcohol, tobacco, or caffeine)."^^xsd:string ;
        cts:cdiscSubmissionValue  "INTERVENTIONS"^^xsd:string ;
        cts:nciCode               "C103374"^^xsd:string ;
        cts:nciPreferredTerm      "CDISC Interventions Class"^^xsd:string ;
        mms:inValueDomain         :C103329 .

:C74456.C54188  a                 mms:PermissibleValue ;
        cts:cdiscDefinition       "The area where the sigmoid colon joins the rectum."^^xsd:string ;
        cts:cdiscSubmissionValue  "RECTOSIGMOID JUNCTION"^^xsd:string ;
        cts:nciCode               "C54188"^^xsd:string ;
        cts:nciPreferredTerm      "Rectosigmoid Region"^^xsd:string ;
        mms:inValueDomain         :C74456 .

:C71153.C62155  a                 mms:PermissibleValue ;
        cts:cdiscDefinition       "The average (mean) deviation (distance from baseline, positive or negative, usually measured in mm) of the ST segment, obtained from a set of measurements of the deviation of the ST segment. (NCI)"^^xsd:string ;
        cts:cdiscSubmissionValue  "STDVMEAN"^^xsd:string ;
        cts:cdiscSynonyms         "Summary (Mean) ST Deviation"^^xsd:string ;
        cts:nciCode               "C62155"^^xsd:string ;
        cts:nciPreferredTerm      "EKG Mean ST Deviation"^^xsd:string ;
        mms:inValueDomain         :C71153 .

:C85491.C86296  a                 mms:PermissibleValue ;
        cts:cdiscDefinition       "Any bacterial organism that can be assigned to the species Clostridium symbiosum."^^xsd:string ;
        cts:cdiscSubmissionValue  "CLOSTRIDIUM SYMBIOSUM"^^xsd:string ;
        cts:cdiscSynonyms         "BACTEROIDES SYMBIOSUS"^^xsd:string ;
        cts:nciCode               "C86296"^^xsd:string ;
        cts:nciPreferredTerm      "Clostridium symbiosum"^^xsd:string ;
        mms:inValueDomain         :C85491 .

:C65047.C64431  a                 mms:PermissibleValue ;
        cts:cdiscDefinition       "A measurement of the albumin protein in a biological specimen."^^xsd:string ;
        cts:cdiscSubmissionValue  "ALB"^^xsd:string ;
        cts:cdiscSynonyms         "Albumin; Microalbumin"^^xsd:string ;
        cts:nciCode               "C64431"^^xsd:string ;
        cts:nciPreferredTerm      "Albumin Measurement"^^xsd:string ;
        mms:inValueDomain         :C65047 .

:C102584.C102636  a               mms:PermissibleValue ;
        cts:cdiscDefinition       "A lack of response to more than one cycle of therapy."^^xsd:string ;
        cts:cdiscSubmissionValue  "FAILURE AFTER MULTIPLE TREATMENTS"^^xsd:string ;
        cts:nciCode               "C102636"^^xsd:string ;
        cts:nciPreferredTerm      "Failure After Multiple Treatments"^^xsd:string ;
        mms:inValueDomain         :C102584 .

:C65047.C74748  a                 mms:PermissibleValue ;
        cts:cdiscDefinition       "A measurement of the binding of triiodothyonine to thyroxine binding globulin protein in a biological specimen."^^xsd:string ;
        cts:cdiscSubmissionValue  "T3UP"^^xsd:string ;
        cts:cdiscSynonyms         "Triiodothyronine Uptake"^^xsd:string ;
        cts:nciCode               "C74748"^^xsd:string ;
        cts:nciPreferredTerm      "Triiodothyronine Uptake Measurement"^^xsd:string ;
        mms:inValueDomain         :C65047 .

:C65047.C103812  a                mms:PermissibleValue ;
        cts:cdiscDefinition       "A relative measurement (ratio or percentage) of CD19 expressing cells to all lymphocytes in a biological specimen."^^xsd:string ;
        cts:cdiscSubmissionValue  "CD19LY"^^xsd:string ;
        cts:cdiscSynonyms         "CD19/Lymphocytes"^^xsd:string ;
        cts:nciCode               "C103812"^^xsd:string ;
        cts:nciPreferredTerm      "CD19 Cell to Lymphocyte Ratio Measurement"^^xsd:string ;
        mms:inValueDomain         :C65047 .

:C85494.C105475  a                mms:PermissibleValue ;
        cts:cdiscDefinition       "Milligrams per milliliter (concentration), divided by milligrams per kilogram (dose normalized by weight)."^^xsd:string ;
        cts:cdiscSubmissionValue  "mg/mL/(mg/kg)"^^xsd:string ;
        cts:nciCode               "C105475"^^xsd:string ;
        cts:nciPreferredTerm      "Milligram Per Milliliter Per Milligram Per Kilogram"^^xsd:string ;
        mms:inValueDomain         :C85494 .

:C66726  a                        mms:EnumeratedValueDomain ;
        cts:cdiscDefinition       "The form of the completed pharmaceutical product, e.g. tablet, capsule, injection, elixir, suppository. Dosage form can have a significant effect on the onset, duration and intensity of the pharmacological action of a drug. A pharmaceutical dosage form controls the rate at which the drug is released into the biological fluids. This release rate affects its intrinsic absorption pattern and therefore, the bioavailability of the drug."^^xsd:string ;
        cts:cdiscSubmissionValue  "FRM"^^xsd:string ;
        cts:cdiscSynonyms         "Pharmaceutical Dosage Form"^^xsd:string ;
        cts:codelistName          "Pharmaceutical Dosage Form"^^xsd:string ;
        cts:isExtensibleCodelist  true ;
        cts:nciCode               "C66726"^^xsd:string ;
        cts:nciPreferredTerm      "CDISC SDTM Pharmaceutical Dosage Form Terminology"^^xsd:string .

:C101864.C100007  a               mms:PermissibleValue ;
        cts:cdiscDefinition       "The coronary sinus/left ventricular lead was not implanted because a lead had been previously implanted."^^xsd:string ;
        cts:cdiscSubmissionValue  "Previously Implanted"^^xsd:string ;
        cts:nciCode               "C100007"^^xsd:string ;
        cts:nciPreferredTerm      "Previously Implanted Cardiac Lead"^^xsd:string ;
        mms:inValueDomain         :C101864 .

:C65047.C81973  a                 mms:PermissibleValue ;
        cts:cdiscDefinition       "A measurement of the anti-DNA antibodies in a biological specimen."^^xsd:string ;
        cts:cdiscSubmissionValue  "DNAAB"^^xsd:string ;
        cts:cdiscSynonyms         "Anti-DNA Antibodies; Anti-ds-DNA Antibodies"^^xsd:string ;
        cts:nciCode               "C81973"^^xsd:string ;
        cts:nciPreferredTerm      "Anti-DNA Antibody Measurement"^^xsd:string ;
        mms:inValueDomain         :C65047 .

:C65047.C103432  a                mms:PermissibleValue ;
        cts:cdiscDefinition       "A measurement of the prostaglandin D2 synthase in a biological specimen."^^xsd:string ;
        cts:cdiscSubmissionValue  "PGD2S"^^xsd:string ;
        cts:cdiscSynonyms         "Prostaglandin D2 Synthase"^^xsd:string ;
        cts:nciCode               "C103432"^^xsd:string ;
        cts:nciPreferredTerm      "Prostaglandin D2 Synthase Measurement"^^xsd:string ;
        mms:inValueDomain         :C65047 .

:C85495.C85559  a                 mms:PermissibleValue ;
        cts:cdiscDefinition       "The growth of microorganisms may be inhibited when higher than normal dosages of an antimicrobial agent are used and maximal possible blood concentration of the antimicrobial agent is achieved."^^xsd:string ;
        cts:cdiscSubmissionValue  "SUSCEPTIBLE-DOSE DEPENDENT"^^xsd:string ;
        cts:cdiscSynonyms         "Susceptible-Dose Dependent"^^xsd:string ;
        cts:nciCode               "C85559"^^xsd:string ;
        cts:nciPreferredTerm      "Antimicrobial Dose Dependent Susceptibility Result"^^xsd:string ;
        mms:inValueDomain         :C85495 .

:C71620.C70497  a                 mms:PermissibleValue ;
        cts:cdiscDefinition       "A unit of unfractionated or low molecular weight heparin anticoagulation potency determined as the amount that neutralizes one unit of coagulation factor Xa preparation defined as an international biological standard by WHO (World Health Organization) First International Low Molecular Weight Heparin Reference Standard.(NCI)"^^xsd:string ;
        cts:cdiscSubmissionValue  "anti-Xa IU"^^xsd:string ;
        cts:cdiscSynonyms         "Anti-Xa Activity International Unit"^^xsd:string ;
        cts:nciCode               "C70497"^^xsd:string ;
        cts:nciPreferredTerm      "Anti-Xa Activity International Unit"^^xsd:string ;
        mms:inValueDomain         :C71620 .

:C67154.C74866  a                 mms:PermissibleValue ;
        cts:cdiscDefinition       "A measurement of the leptin hormone in a biological specimen."^^xsd:string ;
        cts:cdiscSubmissionValue  "Leptin"^^xsd:string ;
        cts:cdiscSynonyms         "Leptin"^^xsd:string ;
        cts:nciCode               "C74866"^^xsd:string ;
        cts:nciPreferredTerm      "Leptin Measurement"^^xsd:string ;
        mms:inValueDomain         :C67154 .

:C85493.C92327  a                 mms:PermissibleValue ;
        cts:cdiscDefinition       "The area under the moment curve (AUMC) from the time of dosing to the last measurable concentration divided by the dose."^^xsd:string ;
        cts:cdiscSubmissionValue  "AUMC to Last Nonzero Conc Norm by Dose"^^xsd:string ;
        cts:cdiscSynonyms         "AUMC to Last Nonzero Conc Norm by Dose"^^xsd:string ;
        cts:nciCode               "C92327"^^xsd:string ;
        cts:nciPreferredTerm      "AUMC Dosing to Last Concentration Normalized by Dose"^^xsd:string ;
        mms:inValueDomain         :C85493 .

:C65047.C80201  a                 mms:PermissibleValue ;
        cts:cdiscDefinition       "A measurement of the pancreatic polypeptide in a biological specimen."^^xsd:string ;
        cts:cdiscSubmissionValue  "PNCTPP"^^xsd:string ;
        cts:cdiscSynonyms         "Pancreatic Polypeptide"^^xsd:string ;
        cts:nciCode               "C80201"^^xsd:string ;
        cts:nciPreferredTerm      "Pancreatic Polypeptide Measurement"^^xsd:string ;
        mms:inValueDomain         :C65047 .

:C67154.C74676  a                 mms:PermissibleValue ;
        cts:cdiscDefinition       "A measurement of the folic acid in a biological specimen."^^xsd:string ;
        cts:cdiscSubmissionValue  "Vitamin B9"^^xsd:string ;
        cts:cdiscSynonyms         "Folic Acid; Vitamin B9"^^xsd:string ;
        cts:nciCode               "C74676"^^xsd:string ;
        cts:nciPreferredTerm      "Folic Acid Measurement"^^xsd:string ;
        mms:inValueDomain         :C67154 .

:C71620.C68893  a                 mms:PermissibleValue ;
        cts:cdiscDefinition       "A unit of amount of substance content (molality unit) defined as one mole of solute per one gram of solvent.(NCI)"^^xsd:string ;
        cts:cdiscSubmissionValue  "mol/g"^^xsd:string ;
        cts:cdiscSynonyms         "Mole per Gram"^^xsd:string ;
        cts:nciCode               "C68893"^^xsd:string ;
        cts:nciPreferredTerm      "Mole per Gram"^^xsd:string ;
        mms:inValueDomain         :C71620 .

:C101862.C99924  a                mms:PermissibleValue ;
        cts:cdiscDefinition       "Conductor failure manifests by high lead impedance either absolutely (above manufacturer's product specifications) or by a significant increase from previously stable chronic values."^^xsd:string ;
        cts:cdiscSubmissionValue  "CONDUCTOR FAILURE"^^xsd:string ;
        cts:nciCode               "C99924"^^xsd:string ;
        cts:nciPreferredTerm      "Cardiac Device Conductor Failure"^^xsd:string ;
        mms:inValueDomain         :C101862 .

:C85491.C86829  a                 mms:PermissibleValue ;
        cts:cdiscDefinition       "Any bacterial organism that can be assigned to the species Tsukamurella paurometabolum."^^xsd:string ;
        cts:cdiscSubmissionValue  "TSUKAMURELLA PAUROMETABOLUM"^^xsd:string ;
        cts:cdiscSynonyms         "GORDONA AURANTIACA"^^xsd:string ;
        cts:nciCode               "C86829"^^xsd:string ;
        cts:nciPreferredTerm      "Tsukamurella paurometabolum"^^xsd:string ;
        mms:inValueDomain         :C85491 .

:C85839.C102380  a                mms:PermissibleValue ;
        cts:cdiscDefinition       "The volume of distribution at steady state based on the observed CLST for a substance administered by intravascular dosing divided by the weight."^^xsd:string ;
        cts:cdiscSubmissionValue  "VSSOW"^^xsd:string ;
        cts:cdiscSynonyms         "Vol Dist Steady State Obs Norm by WT"^^xsd:string ;
        cts:nciCode               "C102380"^^xsd:string ;
        cts:nciPreferredTerm      "Observed Steady State Volume of Distribution Normalized by Weight"^^xsd:string ;
        mms:inValueDomain         :C85839 .

:C71113.C89789  a                 mms:PermissibleValue ;
        cts:cdiscDefinition       "Every six months. (NCI)"^^xsd:string ;
        cts:cdiscSubmissionValue  "Q6M"^^xsd:string ;
        cts:cdiscSynonyms         "Every 6 Months"^^xsd:string ;
        cts:nciCode               "C89789"^^xsd:string ;
        cts:nciPreferredTerm      "Every Six Months"^^xsd:string ;
        mms:inValueDomain         :C71113 .

:C85491.C86639  a                 mms:PermissibleValue ;
        cts:cdiscDefinition       "Any bacterial organism that can be assigned to the species Pasteurella canis."^^xsd:string ;
        cts:cdiscSubmissionValue  "PASTEURELLA CANIS"^^xsd:string ;
        cts:cdiscSynonyms         "PASTEURELLA MULTOCIDA BIOTYPE 6"^^xsd:string ;
        cts:nciCode               "C86639"^^xsd:string ;
        cts:nciPreferredTerm      "Pasteurella canis"^^xsd:string ;
        mms:inValueDomain         :C85491 .

:C88025.C4249  a                  mms:PermissibleValue ;
        cts:cdiscDefinition       "A benign neoplasm comprising mature adipocytes, characterized by areas of abundant fibrous tissue."^^xsd:string ;
        cts:cdiscSubmissionValue  "FIBROLIPOMA, BENIGN"^^xsd:string ;
        cts:nciCode               "C4249"^^xsd:string ;
        cts:nciPreferredTerm      "Fibrolipoma"^^xsd:string ;
        mms:inValueDomain         :C88025 .

:C85491.C85545  a                 mms:PermissibleValue ;
        cts:cdiscDefinition       "Any bacterial organism that can be assigned to the species Mycobacterium bovis."^^xsd:string ;
        cts:cdiscSubmissionValue  "MYCOBACTERIUM BOVIS"^^xsd:string ;
        cts:nciCode               "C85545"^^xsd:string ;
        cts:nciPreferredTerm      "Mycobacterium bovis"^^xsd:string ;
        mms:inValueDomain         :C85491 .

:C71150.C71029  a                 mms:PermissibleValue ;
        cts:cdiscDefinition       "An electrocardiographic finding of ST elevation which is concave upwards, and which is often accompanied by PR segment depression."^^xsd:string ;
        cts:cdiscSubmissionValue  "ST ELEVATION PERICARDITIS"^^xsd:string ;
        cts:cdiscSynonyms         "ST elevation pericarditis"^^xsd:string ;
        cts:nciCode               "C71029"^^xsd:string ;
        cts:nciPreferredTerm      "ST Elevation Pericarditis"^^xsd:string ;
        mms:inValueDomain         :C71150 .

:C85491.C86449  a                 mms:PermissibleValue ;
        cts:cdiscDefinition       "Any bacteria that is not assigned to the species level but can be assigned to the Kingella genus level."^^xsd:string ;
        cts:cdiscSubmissionValue  "KINGELLA"^^xsd:string ;
        cts:nciCode               "C86449"^^xsd:string ;
        cts:nciPreferredTerm      "Kingella"^^xsd:string ;
        mms:inValueDomain         :C85491 .

:C65047.C74780  a                 mms:PermissibleValue ;
        cts:cdiscDefinition       "A measurement of the adrenocorticotropic hormone in a biological specimen."^^xsd:string ;
        cts:cdiscSubmissionValue  "ACTH"^^xsd:string ;
        cts:cdiscSynonyms         "Adrenocorticotropic Hormone"^^xsd:string ;
        cts:nciCode               "C74780"^^xsd:string ;
        cts:nciPreferredTerm      "Adrenocorticotropic Hormone Measurement"^^xsd:string ;
        mms:inValueDomain         :C65047 .

:C101859.C99999  a                mms:PermissibleValue ;
        cts:cdiscDefinition       "Includes patients with unstable angina or Non-STEMI who have high risk features for short-term risk of death or nonfatal MI. High risk features includes at least one of the following: history of accelerating tempo of ischemic symptoms in preceding 48 hours; character of pain - prolonged ongoing (greater than 20 minutes) rest pain; clinical findings - pulmonary edema, most likely due to ischemia or new or worsening mitral regurgitation murmur; or S3 or new worsening rales or Hypotension, bradycardia, tachycardia or age greater than 75 years; ECG - angina at rest with transient ST-segment changes greater than 0.5 mm or bundle-branch block, new or presumed new or sustained ventricular tachycardia; cardiac markers - NSTEMI patients with elevated cardiac TnT, Tnl, or CK-MB."^^xsd:string ;
        cts:cdiscSubmissionValue  "Percutaneous Coronary Intervention (PCI) for High Risk Non-St Elevation Myocardial Infarction Or Unstable Angina"^^xsd:string ;
        cts:nciCode               "C99999"^^xsd:string ;
        cts:nciPreferredTerm      "Percutaneous Coronary Intervention for High Risk Non-ST Elevation Myocardial Infarction or Unstable Angina"^^xsd:string ;
        mms:inValueDomain         :C101859 .

:C85839.C92352  a                 mms:PermissibleValue ;
        cts:cdiscDefinition       "The area under the urinary excretion rate curve (AURC) over the interval from T1 to T2 divided by the surface area."^^xsd:string ;
        cts:cdiscSubmissionValue  "AURCINTS"^^xsd:string ;
        cts:cdiscSynonyms         "AURC from T1 to T2 Norm by SA"^^xsd:string ;
        cts:nciCode               "C92352"^^xsd:string ;
        cts:nciPreferredTerm      "AURC from T1 to T2 Normalized by Surface Area"^^xsd:string ;
        mms:inValueDomain         :C85839 .

:C71153.C62118  a                 mms:PermissibleValue ;
        cts:cdiscDefinition       "A formula which takes into account the physiologic shortening of the JT interval which occurs as the heart rate increases, permitting comparison of the JT interval across a range of rates. It is mathematically defined as: JTcB = JT/SqRootRR(seconds) and theoretically corrects the JT interval to that which would be observed at a heart rate of 1 cycle per second. (NCI)"^^xsd:string ;
        cts:cdiscSubmissionValue  "JTCB"^^xsd:string ;
        cts:cdiscSynonyms         "JTcB - Bazett's Correction Formula"^^xsd:string ;
        cts:nciCode               "C62118"^^xsd:string ;
        cts:nciPreferredTerm      "JTcB-Bazett's Correction Formula"^^xsd:string ;
        mms:inValueDomain         :C71153 .

:C85491.C86259  a                 mms:PermissibleValue ;
        cts:cdiscDefinition       "Any bacterial organism that can be assigned to the species Chryseobacterium gleum."^^xsd:string ;
        cts:cdiscSubmissionValue  "CHRYSEOBACTERIUM GLEUM"^^xsd:string ;
        cts:cdiscSynonyms         "FLAVOBACTERIUM GLEUM"^^xsd:string ;
        cts:nciCode               "C86259"^^xsd:string ;
        cts:nciPreferredTerm      "Chryseobacterium gleum"^^xsd:string ;
        mms:inValueDomain         :C85491 .

:C66734.C49567  a                 mms:PermissibleValue ;
        cts:cdiscDefinition       "Findings resulting from biopsies."^^xsd:string ;
        cts:cdiscSubmissionValue  "BR"^^xsd:string ;
        cts:cdiscSynonyms         "Biopsy"^^xsd:string ;
        cts:nciCode               "C49567"^^xsd:string ;
        cts:nciPreferredTerm      "Biopsy Domain"^^xsd:string ;
        mms:inValueDomain         :C66734 .

:C101858.C99935  a                mms:PermissibleValue ;
        cts:cdiscDefinition       "Surgery performed for the purpose of reducing regurgitation of the cardiac valve between the right atrium and right ventricle."^^xsd:string ;
        cts:cdiscSubmissionValue  "TRICUSPID VALVE REPAIR"^^xsd:string ;
        cts:nciCode               "C99935"^^xsd:string ;
        cts:nciPreferredTerm      "Cardiac Tricuspid Valve Repair"^^xsd:string ;
        mms:inValueDomain         :C101858 .

:C66786.C20112  a                 mms:PermissibleValue ;
        cts:cdiscDefinition       "The U.S. Minor Outlying Islands consist of Baker Island, Howland Island, Jarvis Island, Johnston Atoll, Kingman Reef, Midway Island, Navassa Island, Palmyra Atoll, and Wake Island (Wake Atoll). (NCI)"^^xsd:string ;
        cts:cdiscSubmissionValue  "UMI"^^xsd:string ;
        cts:cdiscSynonyms         "UNITED STATES MINOR OUTLYING ISLANDS"^^xsd:string ;
        cts:nciCode               "C20112"^^xsd:string ;
        cts:nciPreferredTerm      "United States Minor Outlying Islands"^^xsd:string ;
        mms:inValueDomain         :C66786 .

:C67154.C100442  a                mms:PermissibleValue ;
        cts:cdiscDefinition       "A relative measurement (ratio or percentage) of the immature neutrophils to leukocytes in a biological specimen."^^xsd:string ;
        cts:cdiscSubmissionValue  "Immature Neutrophils/Leukocytes"^^xsd:string ;
        cts:cdiscSynonyms         "Immature Neutrophils/Leukocytes"^^xsd:string ;
        cts:nciCode               "C100442"^^xsd:string ;
        cts:nciPreferredTerm      "Immature Neutrophils to Leukocytes Ratio Measurement"^^xsd:string ;
        mms:inValueDomain         :C67154 .

:C66741.C81255  a                 mms:PermissibleValue ;
        cts:cdiscDefinition       "A circumferential measurement of the head at the widest point."^^xsd:string ;
        cts:cdiscSubmissionValue  "HDCIRC"^^xsd:string ;
        cts:cdiscSynonyms         "Head Circumference"^^xsd:string ;
        cts:nciCode               "C81255"^^xsd:string ;
        cts:nciPreferredTerm      "Head Circumference"^^xsd:string ;
        mms:inValueDomain         :C66741 .

:C65047.C100443  a                mms:PermissibleValue ;
        cts:cdiscDefinition       "A relative measurement (ratio or percentage) of the immature lymphocytes to leukocytes in a biological specimen."^^xsd:string ;
        cts:cdiscSubmissionValue  "LYMIMLE"^^xsd:string ;
        cts:cdiscSynonyms         "Immature Lymphocytes/Leukocytes"^^xsd:string ;
        cts:nciCode               "C100443"^^xsd:string ;
        cts:nciPreferredTerm      "Immature Lymphocytes to Leukocytes Ratio Measurement"^^xsd:string ;
        mms:inValueDomain         :C65047 .

:C74456.C12859  a                 mms:PermissibleValue ;
        cts:cdiscDefinition       "A carpal bone located between the trapezium and capitate bones. (NCI)"^^xsd:string ;
        cts:cdiscSubmissionValue  "TRAPEZOID BONE"^^xsd:string ;
        cts:cdiscSynonyms         "Trapezoid Bone"^^xsd:string ;
        cts:nciCode               "C12859"^^xsd:string ;
        cts:nciPreferredTerm      "Trapezoid Bone"^^xsd:string ;
        mms:inValueDomain         :C74456 .

:C65047.C80183  a                 mms:PermissibleValue ;
        cts:cdiscDefinition       "A measurement of the total glucagon-like peptide-1 in a biological specimen."^^xsd:string ;
        cts:cdiscSubmissionValue  "GLP1"^^xsd:string ;
        cts:cdiscSynonyms         "Glucagon-Like Peptide-1; Total Glucagon-Like Peptide-1"^^xsd:string ;
        cts:nciCode               "C80183"^^xsd:string ;
        cts:nciPreferredTerm      "Glucagon-like Peptide-1 Measurement"^^xsd:string ;
        mms:inValueDomain         :C65047 .

:C67154.C96648  a                 mms:PermissibleValue ;
        cts:cdiscDefinition       "A measurement of the fat in a biological specimen."^^xsd:string ;
        cts:cdiscSubmissionValue  "Fat"^^xsd:string ;
        cts:cdiscSynonyms         "Fat"^^xsd:string ;
        cts:nciCode               "C96648"^^xsd:string ;
        cts:nciPreferredTerm      "Fat Measurement"^^xsd:string ;
        mms:inValueDomain         :C67154 .

:C74456.C12669  a                 mms:PermissibleValue ;
        cts:cdiscDefinition       "The major arterial trunk that carries oxygenated blood from the left ventricle into the ascending aorta behind the heart, the aortic arch, through the thorax as the descending aorta and through the abdomen as the abdominal aorta; it bifurcates into the left and right common iliac arteries. (NCI)"^^xsd:string ;
        cts:cdiscSubmissionValue  "AORTA"^^xsd:string ;
        cts:cdiscSynonyms         "Aorta"^^xsd:string ;
        cts:nciCode               "C12669"^^xsd:string ;
        cts:nciPreferredTerm      "Aorta"^^xsd:string ;
        mms:inValueDomain         :C74456 .

:C65047.C96663  a                 mms:PermissibleValue ;
        cts:cdiscDefinition       "A measurement of the hepatitis B e antigen in a biological specimen."^^xsd:string ;
        cts:cdiscSubmissionValue  "HBEAG"^^xsd:string ;
        cts:cdiscSynonyms         "Hepatitis B Virus e Antigen"^^xsd:string ;
        cts:nciCode               "C96663"^^xsd:string ;
        cts:nciPreferredTerm      "Hepatitis B Virus e Antigen Measurement"^^xsd:string ;
        mms:inValueDomain         :C65047 .

:C100130.C96587  a                mms:PermissibleValue ;
        cts:cdiscDefinition       "A male relative who is a sibling of either of the biological parents, and who share a common ancestor. (NCI)"^^xsd:string ;
        cts:cdiscSubmissionValue  "UNCLE, BIOLOGICAL"^^xsd:string ;
        cts:cdiscSynonyms         "Biological Uncle"^^xsd:string ;
        cts:nciCode               "C96587"^^xsd:string ;
        cts:nciPreferredTerm      "Biological Uncle"^^xsd:string ;
        mms:inValueDomain         :C100130 .

:C101859.C100015  a               mms:PermissibleValue ;
        cts:cdiscDefinition       "A subsequent Percutaneous Coronary Intervention in a planned series of procedures, where the first PCI could have been during a prior admission, or during this admission."^^xsd:string ;
        cts:cdiscSubmissionValue  "Staged Percutaneous Coronary Intervention (PCI)"^^xsd:string ;
        cts:nciCode               "C100015"^^xsd:string ;
        cts:nciPreferredTerm      "Staged Percutaneous Coronary Intervention"^^xsd:string ;
        mms:inValueDomain         :C101859 .

:C106483.C73792  a                mms:PermissibleValue ;
        cts:cdiscDefinition       "In magnetic resonance imaging, the rotation of the average axis of the protons, relative to the main magnetic field direction, induced by radiofrequency signals. (NCI)"^^xsd:string ;
        cts:cdiscSubmissionValue  "FLIPANGL"^^xsd:string ;
        cts:cdiscSynonyms         "Flip Angle"^^xsd:string ;
        cts:nciCode               "C73792"^^xsd:string ;
        cts:nciPreferredTerm      "Flip Angle"^^xsd:string ;
        mms:inValueDomain         :C106483 .

:C66737.C49689  a                 mms:PermissibleValue ;
        cts:cdiscDefinition       "A subcategory of Phase III trials done near the time of approval to elicit additional findings. NOTE: Dossier review may continue while associated Phase IIIB trials are conducted. These trials may be required as a condition of regulatory authority approval."^^xsd:string ;
        cts:cdiscSubmissionValue  "Phase IIIb Trial"^^xsd:string ;
        cts:cdiscSynonyms         "Trial Phase 3B; 3B"^^xsd:string ;
        cts:nciCode               "C49689"^^xsd:string ;
        cts:nciPreferredTerm      "Phase IIIb Trial"^^xsd:string ;
        mms:inValueDomain         :C66737 .

:C78735.C68608  a                 mms:PermissibleValue ;
        cts:cdiscDefinition       "A person or agency that promotes or exchanges goods or services for money. (NCI)"^^xsd:string ;
        cts:cdiscSubmissionValue  "VENDOR"^^xsd:string ;
        cts:nciCode               "C68608"^^xsd:string ;
        cts:nciPreferredTerm      "Vendor"^^xsd:string ;
        mms:inValueDomain         :C78735 .

:C67154.C82026  a                 mms:PermissibleValue ;
        cts:cdiscDefinition       "A measurement of the neutrophil elastase in a biological specimen."^^xsd:string ;
        cts:cdiscSubmissionValue  "Neutrophil Elastase"^^xsd:string ;
        cts:cdiscSynonyms         "Neutrophil Elastase"^^xsd:string ;
        cts:nciCode               "C82026"^^xsd:string ;
        cts:nciPreferredTerm      "Neutrophil Elastase Measurement"^^xsd:string ;
        mms:inValueDomain         :C67154 .

:C85491.C86861  a                 mms:PermissibleValue ;
        cts:cdiscDefinition       "Any bacterial organism that can be assigned to the species Yersinia pseudotuberculosis."^^xsd:string ;
        cts:cdiscSubmissionValue  "YERSINIA PSEUDOTUBERCULOSIS"^^xsd:string ;
        cts:cdiscSynonyms         "PASTEURELLA PSEUDOTUBERCULOSIS"^^xsd:string ;
        cts:nciCode               "C86861"^^xsd:string ;
        cts:nciPreferredTerm      "Yersinia pseudotuberculosis"^^xsd:string ;
        mms:inValueDomain         :C85491 .

:C71150.C62257  a                 mms:PermissibleValue ;
        cts:cdiscDefinition       "An electrocardiographic finding of an ectopic impulse originating in the atria and not specifically in the sinus node. The P wave morphology of these complexes is often different from a sinus P wave and the RR intervals preceding these complexes is also shorter than those of the regular beats."^^xsd:string ;
        cts:cdiscSubmissionValue  "PREMATURE ATRIAL COMPLEXES"^^xsd:string ;
        cts:cdiscSynonyms         "Premature atrial complexes; Supraventricular Extra Beat; SVE; APC; PAC; Atrial premature complex(es)"^^xsd:string ;
        cts:nciCode               "C62257"^^xsd:string ;
        cts:nciPreferredTerm      "Atrial Premature Complex"^^xsd:string ;
        mms:inValueDomain         :C71150 .

:C85839.C85768  a                 mms:PermissibleValue ;
        cts:cdiscDefinition       "The area under the urinary excretion rate curve (AURC) from the last observed non-zero rate value to infinity as a percentage of the area under the urinary excretion rate curve extrapolated to infinity."^^xsd:string ;
        cts:cdiscSubmissionValue  "AURCPEO"^^xsd:string ;
        cts:cdiscSynonyms         "AURC % Extrapolation Obs"^^xsd:string ;
        cts:nciCode               "C85768"^^xsd:string ;
        cts:nciPreferredTerm      "Observed Area Under the Urinary Excretion Rate Curve Percent Extrapolation"^^xsd:string ;
        mms:inValueDomain         :C85839 .

:C67154.C74829  a                 mms:PermissibleValue ;
        cts:cdiscDefinition       "A measurement of the interleukin 31 in a biological specimen."^^xsd:string ;
        cts:cdiscSubmissionValue  "Interleukin 31"^^xsd:string ;
        cts:cdiscSynonyms         "Interleukin 31"^^xsd:string ;
        cts:nciCode               "C74829"^^xsd:string ;
        cts:nciPreferredTerm      "Interleukin 31 Measurement"^^xsd:string ;
        mms:inValueDomain         :C67154 .

:C71620.C70510  a                 mms:PermissibleValue ;
        cts:cdiscDefinition       "A unit of catalytic activity concentration defined as the catalytic activity of the component equal to one billionth of one katal (10E-9 katal) in the unit volume of the system equal to one liter.(NCI)"^^xsd:string ;
        cts:cdiscSubmissionValue  "nkat/L"^^xsd:string ;
        cts:cdiscSynonyms         "Nanokatal per Liter"^^xsd:string ;
        cts:nciCode               "C70510"^^xsd:string ;
        cts:nciPreferredTerm      "Nanokatal per Liter"^^xsd:string ;
        mms:inValueDomain         :C71620 .

:C85491.C86671  a                 mms:PermissibleValue ;
        cts:cdiscDefinition       "A non-taxonomic grouping of bacteria assigned to the Prevotella genus that include the P. intermedia and P. nigrescens species."^^xsd:string ;
        cts:cdiscSubmissionValue  "PREVOTELLA INTERMEDIA/NIGRESCENS GROUP"^^xsd:string ;
        cts:nciCode               "C86671"^^xsd:string ;
        cts:nciPreferredTerm      "Prevotella intermedia/nigrescens Group"^^xsd:string ;
        mms:inValueDomain         :C85491 .

:C76351.C74572  a                 mms:PermissibleValue ;
        cts:cdiscDefinition       "Individuals who rarely burn and tan heavily with moderate sun exposures, especially individuals of Asian, American Indian, Mediterranean and Latin American descent. (Reference: Fitzpatrick TB: The validity and practicality of sun-reactive skin types I through VI. Arch. Dermatol. 1998 124: 869-871)"^^xsd:string ;
        cts:cdiscSubmissionValue  "TYPEIV"^^xsd:string ;
        cts:cdiscSynonyms         "TYPE4"^^xsd:string ;
        cts:nciCode               "C74572"^^xsd:string ;
        cts:nciPreferredTerm      "Fitzpatrick Skin Type IV"^^xsd:string ;
        mms:inValueDomain         :C76351 .

:C85491.C86481  a                 mms:PermissibleValue ;
        cts:cdiscDefinition       "Any bacterial organism that can be assigned to the species Lactobacillus johnsonii."^^xsd:string ;
        cts:cdiscSubmissionValue  "LACTOBACILLUS JOHNSONII"^^xsd:string ;
        cts:nciCode               "C86481"^^xsd:string ;
        cts:nciPreferredTerm      "Lactobacillus johnsonii"^^xsd:string ;
        mms:inValueDomain         :C85491 .

:C71113.C64518  a                 mms:PermissibleValue ;
        cts:cdiscDefinition       "Every four hours. (NCI)"^^xsd:string ;
        cts:cdiscSubmissionValue  "Q4H"^^xsd:string ;
        cts:cdiscSynonyms         "Every 4 hours"^^xsd:string ;
        cts:nciCode               "C64518"^^xsd:string ;
        cts:nciPreferredTerm      "Every Four Hours"^^xsd:string ;
        mms:inValueDomain         :C71113 .

:C85491.C86291  a                 mms:PermissibleValue ;
        cts:cdiscDefinition       "Any bacterial organism that can be assigned to the species Clostridium rectum."^^xsd:string ;
        cts:cdiscSubmissionValue  "CLOSTRIDIUM RECTUM"^^xsd:string ;
        cts:nciCode               "C86291"^^xsd:string ;
        cts:nciPreferredTerm      "Clostridium rectum"^^xsd:string ;
        mms:inValueDomain         :C85491 .

:C88025.C3308  a                  mms:PermissibleValue ;
        cts:cdiscDefinition       "A neoplasm arising from paraganglia located along nerves composed of neoplastic neuroectodermal chromaffin cells, for which the malignancy status has not been established."^^xsd:string ;
        cts:cdiscSubmissionValue  "PARAGANGLIOMA, UNDETERMINED"^^xsd:string ;
        cts:cdiscSynonyms         "PARAGANGLION NEOPLASM; NEOPLASM OF PARAGANGLION; TUMOR OF THE PARAGANGLION; PARAGANGLION TUMOR; TUMOR OF PARAGANGLION; PARAGANGLIONIC NEOPLASM; PARAGANGLIONIC TUMOR; NEOPLASM OF THE PARAGANGLION"^^xsd:string ;
        cts:nciCode               "C3308"^^xsd:string ;
        cts:nciPreferredTerm      "Paraganglioma"^^xsd:string ;
        mms:inValueDomain         :C88025 .

:C96777.C96612  a                 mms:PermissibleValue ;
        cts:cdiscDefinition       "An oncologist performing the assessment that is given the designation of two."^^xsd:string ;
        cts:cdiscSubmissionValue  "ONCOLOGIST 2"^^xsd:string ;
        cts:nciCode               "C96612"^^xsd:string ;
        cts:nciPreferredTerm      "Oncologist 2"^^xsd:string ;
        mms:inValueDomain         :C96777 .

:C65047.C45997  a                 mms:PermissibleValue ;
        cts:cdiscDefinition       "A measure of the acidity or alkalinity of a fluid on a scale of 0 to 14.(NCI)"^^xsd:string ;
        cts:cdiscSubmissionValue  "PH"^^xsd:string ;
        cts:cdiscSynonyms         "pH"^^xsd:string ;
        cts:nciCode               "C45997"^^xsd:string ;
        cts:nciPreferredTerm      "pH"^^xsd:string ;
        mms:inValueDomain         :C65047 .

:C65047.C74743  a                 mms:PermissibleValue ;
        cts:cdiscDefinition       "A measurement of the N-telopeptide in a biological specimen."^^xsd:string ;
        cts:cdiscSubmissionValue  "NTELOP"^^xsd:string ;
        cts:cdiscSynonyms         "N-telopeptide"^^xsd:string ;
        cts:nciCode               "C74743"^^xsd:string ;
        cts:nciPreferredTerm      "N-telopeptide Measurement"^^xsd:string ;
        mms:inValueDomain         :C65047 .

:C85839.C92315  a                 mms:PermissibleValue ;
        cts:cdiscDefinition       "The area under the curve (AUC) over the interval from T1 to T2 divided by the weight."^^xsd:string ;
        cts:cdiscSubmissionValue  "AUCINTW"^^xsd:string ;
        cts:cdiscSynonyms         "AUC from T1 to T2 Norm by WT"^^xsd:string ;
        cts:nciCode               "C92315"^^xsd:string ;
        cts:nciPreferredTerm      "AUC from T1 to T2 Normalized by Weight"^^xsd:string ;
        mms:inValueDomain         :C85839 .

:C66726.C42966  a                 mms:PermissibleValue ;
        cts:cdiscDefinition       "A suspension or emulsion, semisolid (1) dosage form, usually containing < 20% water and volatiles (2) and > 50% hydrocarbons, waxes, or polyols as the vehicle. This dosage form is generally for external application to the skin or mucous membranes. Note 1: A semisolid is not pourable; it does not flow or conform to its container at room temperature. It does not flow at low shear stress and generally exhibits plastic flow behavior. Note 2: Percent water and volatiles are measured by a loss on drying test in which the sample is heated at 105 degrees C until constant weight is achieved."^^xsd:string ;
        cts:cdiscSubmissionValue  "OINTMENT"^^xsd:string ;
        cts:cdiscSynonyms         "oint"^^xsd:string ;
        cts:nciCode               "C42966"^^xsd:string ;
        cts:nciPreferredTerm      "Ointment Dosage Form"^^xsd:string ;
        mms:inValueDomain         :C66726 .

:C71620.C54703  a                 mms:PermissibleValue ;
        cts:cdiscDefinition       "A dosing measurement based on the cup unit.(NCI)"^^xsd:string ;
        cts:cdiscSubmissionValue  "CUP"^^xsd:string ;
        cts:cdiscSynonyms         "Cup Dosing Unit"^^xsd:string ;
        cts:nciCode               "C54703"^^xsd:string ;
        cts:nciPreferredTerm      "Cup Dosing Unit"^^xsd:string ;
        mms:inValueDomain         :C71620 .

:C85494.C105470  a                mms:PermissibleValue ;
        cts:cdiscDefinition       "Hours times nanograms per milliliter (area under the curve), divided by milligrams per kilogram per day (daily dose normalized by weight)."^^xsd:string ;
        cts:cdiscSubmissionValue  "h*ng/mL/(mg/kg/day)"^^xsd:string ;
        cts:nciCode               "C105470"^^xsd:string ;
        cts:nciPreferredTerm      "Hour Times Nanogram Per Milliliter Per Milligram Per Kilogram Per Day"^^xsd:string ;
        mms:inValueDomain         :C85494 .

:C71150.C106496  a                mms:PermissibleValue ;
        cts:cdiscDefinition       "An electrocardiographic finding of pathologic Q waves with accompanying ST elevation in leads V1 to V6, I and aVL, which is suggestive of acute myocardial infarction involving the anterior and anterolateral walls of the left ventricle."^^xsd:string ;
        cts:cdiscSubmissionValue  "ACUTE EXTENSIVE ANTERIOR WALL MYOCARDIAL INFARCTION"^^xsd:string ;
        cts:nciCode               "C106496"^^xsd:string ;
        cts:nciPreferredTerm      "Acute Extensive Anterior Wall Myocardial Infarction by ECG Finding"^^xsd:string ;
        mms:inValueDomain         :C71150 .

:C67154.C98868  a                 mms:PermissibleValue ;
        cts:cdiscDefinition       "A relative measurement (ratio or percentage) of the myelocytes to total cells in a biological specimen (for example a bone marrow specimen)."^^xsd:string ;
        cts:cdiscSubmissionValue  "Myelocytes/Total Cells"^^xsd:string ;
        cts:cdiscSynonyms         "Myelocytes/Total Cells"^^xsd:string ;
        cts:nciCode               "C98868"^^xsd:string ;
        cts:nciPreferredTerm      "Myelocyte to Total CellRatio Measurement"^^xsd:string ;
        mms:inValueDomain         :C67154 .

:C67154.C92286  a                 mms:PermissibleValue ;
        cts:cdiscDefinition       "A measurement of the acyl coenzyme A oxidase in a biological specimen."^^xsd:string ;
        cts:cdiscSubmissionValue  "Acyl Coenzyme A Oxidase"^^xsd:string ;
        cts:cdiscSynonyms         "Acyl Coenzyme A Oxidase; Fatty Acyl Coenzyme A Oxidase; Acyl CoA Oxidase"^^xsd:string ;
        cts:nciCode               "C92286"^^xsd:string ;
        cts:nciPreferredTerm      "Acyl Coenzyme A Oxidase Measurement"^^xsd:string ;
        mms:inValueDomain         :C67154 .

:C67154.C64494  a                 mms:PermissibleValue ;
        cts:cdiscDefinition       "A measurement of the homozygous M-type creatine kinase in a biological specimen."^^xsd:string ;
        cts:cdiscSubmissionValue  "Creatine Kinase MM"^^xsd:string ;
        cts:cdiscSynonyms         "Creatine Kinase MM"^^xsd:string ;
        cts:nciCode               "C64494"^^xsd:string ;
        cts:nciPreferredTerm      "Creatine Kinase MM Measurement"^^xsd:string ;
        mms:inValueDomain         :C67154 .

:C65047.C106519  a                mms:PermissibleValue ;
        cts:cdiscDefinition       "An assessment of Epstein-Barr virus infection based on a panel of EBV antigen antibody tests."^^xsd:string ;
        cts:cdiscSubmissionValue  "EBVINTP"^^xsd:string ;
        cts:cdiscSynonyms         "EBV Profile Interpretation; Epstein-Barr Virus Antibody Profile; Epstein-Barr Virus Profile Interpretation; Epstein-Barr Virus Panel"^^xsd:string ;
        cts:nciCode               "C106519"^^xsd:string ;
        cts:nciPreferredTerm      "Epstein-Barr Virus Profile Interpretation"^^xsd:string ;
        mms:inValueDomain         :C65047 .

:C67154.C96680  a                 mms:PermissibleValue ;
        cts:cdiscDefinition       "A relative measurement (ratio or percentage) of immature plasma cells to total lymphocytes in a biological specimen."^^xsd:string ;
        cts:cdiscSubmissionValue  "Immature Plasma Cells/Lymphocytes"^^xsd:string ;
        cts:cdiscSynonyms         "Immature Plasma Cells/Lymphocytes"^^xsd:string ;
        cts:nciCode               "C96680"^^xsd:string ;
        cts:nciPreferredTerm      "Immature Plasma Cell to Lymphocyte Ratio Measurement"^^xsd:string ;
        mms:inValueDomain         :C67154 .

:C78733.C70719  a                 mms:PermissibleValue ;
        cts:cdiscDefinition       "A specimen that has been subjected to and adjusted to the average ambient temperature of a room, usually considered to be around 20 degrees C (68 degrees F). (NCI)"^^xsd:string ;
        cts:cdiscSubmissionValue  "ROOM TEMPERATURE"^^xsd:string ;
        cts:cdiscSynonyms         "Ambient Temperature; Specimen at Room Temperature"^^xsd:string ;
        cts:nciCode               "C70719"^^xsd:string ;
        cts:nciPreferredTerm      "Specimen at Room Temperature"^^xsd:string ;
        mms:inValueDomain         :C78733 .

:C101850.C100023  a               mms:PermissibleValue ;
        cts:cdiscDefinition       "There was greater than or equal to 50% stenosis (reduction in cross-sectional area) in two coronary arteries (or greater than or equal to 50% stenosis in the left main coronary artery)."^^xsd:string ;
        cts:cdiscSubmissionValue  "TWO VESSEL DISEASE"^^xsd:string ;
        cts:nciCode               "C100023"^^xsd:string ;
        cts:nciPreferredTerm      "Two Vessel Coronary Disease"^^xsd:string ;
        mms:inValueDomain         :C101850 .

:C71620.C70492  a                 mms:PermissibleValue ;
        cts:cdiscDefinition       "A unit equal to one thousand international units.(NCI)"^^xsd:string ;
        cts:cdiscSubmissionValue  "kIU"^^xsd:string ;
        cts:cdiscSynonyms         "Kilo International Unit"^^xsd:string ;
        cts:nciCode               "C70492"^^xsd:string ;
        cts:nciPreferredTerm      "Kilointernational Unit"^^xsd:string ;
        mms:inValueDomain         :C71620 .

:C101848.C102401  a               mms:PermissibleValue ;
        cts:cdiscDefinition       "The potential future harm that may arise from some present action or attribute or condition is almost certain."^^xsd:string ;
        cts:cdiscSubmissionValue  "HIGH RISK"^^xsd:string ;
        cts:nciCode               "C102401"^^xsd:string ;
        cts:nciPreferredTerm      "High Risk"^^xsd:string ;
        mms:inValueDomain         :C101848 .

:C67154.C74861  a                 mms:PermissibleValue ;
        cts:cdiscDefinition       "A measurement of the growth hormone inhibiting hormone in a biological specimen."^^xsd:string ;
        cts:cdiscSubmissionValue  "Growth Hormone Inhibiting Hormone"^^xsd:string ;
        cts:cdiscSynonyms         "Growth Hormone Inhibiting Hormone; Somatostatin"^^xsd:string ;
        cts:nciCode               "C74861"^^xsd:string ;
        cts:nciPreferredTerm      "Growth Hormone Inhibiting Hormone Measurement"^^xsd:string ;
        mms:inValueDomain         :C67154 .

:C65047.C96626  a                 mms:PermissibleValue ;
        cts:cdiscDefinition       "A measurement of the Factor II in a biological specimen."^^xsd:string ;
        cts:cdiscSubmissionValue  "FACTII"^^xsd:string ;
        cts:cdiscSynonyms         "Factor II; Prothrombin"^^xsd:string ;
        cts:nciCode               "C96626"^^xsd:string ;
        cts:nciPreferredTerm      "Prothrombin Measurement"^^xsd:string ;
        mms:inValueDomain         :C65047 .

:C85493.C92322  a                 mms:PermissibleValue ;
        cts:cdiscDefinition       "The area under the curve (AUC) for the defined interval between doses (TAU) divided by the body mass index."^^xsd:string ;
        cts:cdiscSubmissionValue  "AUC Over Dosing Interval Norm by BMI"^^xsd:string ;
        cts:cdiscSynonyms         "AUC Over Dosing Interval Norm by BMI"^^xsd:string ;
        cts:nciCode               "C92322"^^xsd:string ;
        cts:nciPreferredTerm      "AUC Over Dosing Interval Normalized by Body Mass Index"^^xsd:string ;
        mms:inValueDomain         :C85493 .

:C67154.C74671  a                 mms:PermissibleValue ;
        cts:cdiscDefinition       "A measurement of the calcium phosphate crystals present in a biological specimen."^^xsd:string ;
        cts:cdiscSubmissionValue  "Calcium Phosphate Crystals"^^xsd:string ;
        cts:cdiscSynonyms         "Calcium Phosphate Crystals"^^xsd:string ;
        cts:nciCode               "C74671"^^xsd:string ;
        cts:nciPreferredTerm      "Calcium Phosphate Crystal Measurement"^^xsd:string ;
        mms:inValueDomain         :C67154 .

:C101854.C99992  a                mms:PermissibleValue ;
        cts:cdiscDefinition       "The cardiac valve orifice is not abnormally narrow."^^xsd:string ;
        cts:cdiscSubmissionValue  "NO CARDIAC VALVE STENOSIS"^^xsd:string ;
        cts:nciCode               "C99992"^^xsd:string ;
        cts:nciPreferredTerm      "No Cardiac Valve Stenosis"^^xsd:string ;
        mms:inValueDomain         :C101854 .

:C88025.C3340  a                  mms:PermissibleValue ;
        cts:cdiscDefinition       "A protruding growth attached to the underlying tissue by a broad base or a thin stalk, which can be either inflammatory, hamartomatous, or neoplastic."^^xsd:string ;
        cts:cdiscSubmissionValue  "POLYP, UNDETERMINED"^^xsd:string ;
        cts:nciCode               "C3340"^^xsd:string ;
        cts:nciPreferredTerm      "Polyp"^^xsd:string ;
        mms:inValueDomain         :C88025 .

:C106479.C16955  a                mms:PermissibleValue ;
        cts:cdiscDefinition       "A measurement of the total number of live-born offspring a female has delivered."^^xsd:string ;
        cts:cdiscSubmissionValue  "BRTHLVN"^^xsd:string ;
        cts:cdiscSynonyms         "Number of Live Births"^^xsd:string ;
        cts:nciCode               "C16955"^^xsd:string ;
        cts:nciPreferredTerm      "Parity"^^xsd:string ;
        mms:inValueDomain         :C106479 .

:C85491.C86634  a                 mms:PermissibleValue ;
        cts:cdiscDefinition       "Any bacterial organism that can be assigned to the species Parabacteroides distasonis."^^xsd:string ;
        cts:cdiscSubmissionValue  "PARABACTEROIDES DISTASONIS"^^xsd:string ;
        cts:cdiscSynonyms         "BACTEROIDES DISTASONIS"^^xsd:string ;
        cts:nciCode               "C86634"^^xsd:string ;
        cts:nciPreferredTerm      "Parabacteroides distasonis"^^xsd:string ;
        mms:inValueDomain         :C85491 .

:C66786.C16322  a                 mms:PermissibleValue ;
        cts:cdiscDefinition       "An archipelago in the Persian Gulf, east of Saudi Arabia. (NCI)"^^xsd:string ;
        cts:cdiscSubmissionValue  "BHR"^^xsd:string ;
        cts:cdiscSynonyms         "BAHRAIN"^^xsd:string ;
        cts:nciCode               "C16322"^^xsd:string ;
        cts:nciPreferredTerm      "Bahrain"^^xsd:string ;
        mms:inValueDomain         :C66786 .

:C85491.C86444  a                 mms:PermissibleValue ;
        cts:cdiscDefinition       "Any bacteria that is not assigned to the species level but can be assigned to the Inquilinus genus level."^^xsd:string ;
        cts:cdiscSubmissionValue  "INQUILINUS"^^xsd:string ;
        cts:nciCode               "C86444"^^xsd:string ;
        cts:nciPreferredTerm      "Inquilinus"^^xsd:string ;
        mms:inValueDomain         :C85491 .

:C71153.C62113  a                 mms:PermissibleValue ;
        cts:cdiscDefinition       "A formula which takes into account the physiologic shortening of the QT interval which occurs as the heart rate increases, permitting comparison of the QT interval across a range of rates. It is mathematically defined as: QTcF = QT/CubeRootRR(seconds) and theoretically corrects the QT interval to that which would be observed at a heart rate of 1 cycle per second. (NCI)"^^xsd:string ;
        cts:cdiscSubmissionValue  "QTCF"^^xsd:string ;
        cts:cdiscSynonyms         "QTcF - Fridericia's Correction Formula"^^xsd:string ;
        cts:nciCode               "C62113"^^xsd:string ;
        cts:nciPreferredTerm      "QTcF-Fridericia's Correction Formula"^^xsd:string ;
        mms:inValueDomain         :C71153 .

:C85491.C86254  a                 mms:PermissibleValue ;
        cts:cdiscDefinition       "Any bacteria that is not assigned to the species level but can be assigned to the Chlamydophila genus level."^^xsd:string ;
        cts:cdiscSubmissionValue  "CHLAMYDOPHILA"^^xsd:string ;
        cts:nciCode               "C86254"^^xsd:string ;
        cts:nciPreferredTerm      "Chlamydophila"^^xsd:string ;
        mms:inValueDomain         :C85491 .

:C101847.C99970  a                mms:PermissibleValue ;
        cts:cdiscDefinition       "The diameter across the left atrium measured at the end of systole."^^xsd:string ;
        cts:cdiscSubmissionValue  "LADMN"^^xsd:string ;
        cts:cdiscSynonyms         "Left Atrium Dimension"^^xsd:string ;
        cts:nciCode               "C99970"^^xsd:string ;
        cts:nciPreferredTerm      "Left Atrium Dimension"^^xsd:string ;
        mms:inValueDomain         :C101847 .

:C66734.C49562  a                 mms:PermissibleValue ;
        cts:cdiscDefinition       "Adverse events may be captured either as free text or a pre-specified list of terms."^^xsd:string ;
        cts:cdiscSubmissionValue  "AE"^^xsd:string ;
        cts:cdiscSynonyms         "Adverse Events"^^xsd:string ;
        cts:nciCode               "C49562"^^xsd:string ;
        cts:nciPreferredTerm      "Adverse Event Domain"^^xsd:string ;
        mms:inValueDomain         :C66734 .

:C65047.C74706  a                 mms:PermissibleValue ;
        cts:cdiscDefinition       "A measurement of the schistocytes (fragmented red blood cells) in a biological specimen."^^xsd:string ;
        cts:cdiscSubmissionValue  "SCHISTO"^^xsd:string ;
        cts:cdiscSynonyms         "Schistocytes"^^xsd:string ;
        cts:nciCode               "C74706"^^xsd:string ;
        cts:nciPreferredTerm      "Schistocyte Count"^^xsd:string ;
        mms:inValueDomain         :C65047 .

:C66734.C106571  a                mms:PermissibleValue ;
        cts:cdiscDefinition       "A special purpose domain that associates the subject with the medical conclusions contained in the PB domain based on the observations reported in PF. (NCI)"^^xsd:string ;
        cts:cdiscSubmissionValue  "SB"^^xsd:string ;
        cts:cdiscSynonyms         "Subject Biological State"^^xsd:string ;
        cts:nciCode               "C106571"^^xsd:string ;
        cts:nciPreferredTerm      "Subject Biological State Domain"^^xsd:string ;
        mms:inValueDomain         :C66734 .

:C66726.C42929  a                 mms:PermissibleValue ;
        cts:cdiscDefinition       "A concentrated preparation of vegetable or animal drugs obtained by removal of the active constituents of the respective drugs with a suitable menstrua, evaporation of all or nearly all of the solvent, and adjustment of the residual masses or powders to the prescribed standards. (NCI)"^^xsd:string ;
        cts:cdiscSubmissionValue  "EXTRACT"^^xsd:string ;
        cts:nciCode               "C42929"^^xsd:string ;
        cts:nciPreferredTerm      "Extract Dosage Form"^^xsd:string ;
        mms:inValueDomain         :C66726 .

:C101846.C100086  a               mms:PermissibleValue ;
        cts:cdiscDefinition       "The contribution of blood supply from the right or left vessel system to the posterior descending artery. (ACC)"^^xsd:string ;
        cts:cdiscSubmissionValue  "Coronary Artery Dominance"^^xsd:string ;
        cts:cdiscSynonyms         "Coronary Artery Dominance; Coronary Anatomy Dominance"^^xsd:string ;
        cts:nciCode               "C100086"^^xsd:string ;
        cts:nciPreferredTerm      "Coronary Artery Dominance"^^xsd:string ;
        mms:inValueDomain         :C101846 .

:C67154.C103808  a                mms:PermissibleValue ;
        cts:cdiscDefinition       "A count of the CD19 expressing cells per unit in a biological specimen."^^xsd:string ;
        cts:cdiscSubmissionValue  "CD19"^^xsd:string ;
        cts:cdiscSynonyms         "CD19"^^xsd:string ;
        cts:nciCode               "C103808"^^xsd:string ;
        cts:nciPreferredTerm      "CD19 Expressing Cell Count"^^xsd:string ;
        mms:inValueDomain         :C67154 .

:C67154.C92249  a                 mms:PermissibleValue ;
        cts:cdiscDefinition       "A measurement of the cotinine in a biological specimen."^^xsd:string ;
        cts:cdiscSubmissionValue  "Cotinine"^^xsd:string ;
        cts:cdiscSynonyms         "Cotinine"^^xsd:string ;
        cts:nciCode               "C92249"^^xsd:string ;
        cts:nciPreferredTerm      "Cotinine Measurement"^^xsd:string ;
        mms:inValueDomain         :C67154 .

:C74456.C12854  a                 mms:PermissibleValue ;
        cts:cdiscDefinition       "A nut-shaped bone of the wrist located in the radial site of the hand. It is one of the eight carpal bones. (NCI)"^^xsd:string ;
        cts:cdiscSubmissionValue  "SCAPHOID BONE"^^xsd:string ;
        cts:cdiscSynonyms         "Scaphoid Bone"^^xsd:string ;
        cts:nciCode               "C12854"^^xsd:string ;
        cts:nciPreferredTerm      "Scaphoid Bone"^^xsd:string ;
        mms:inValueDomain         :C74456 .

:C85493.C102376  a                mms:PermissibleValue ;
        cts:cdiscDefinition       "The total clearance of a substance from the blood less the renal clearance."^^xsd:string ;
        cts:cdiscSubmissionValue  "Nonrenal CL"^^xsd:string ;
        cts:cdiscSynonyms         "Nonrenal CL"^^xsd:string ;
        cts:nciCode               "C102376"^^xsd:string ;
        cts:nciPreferredTerm      "Nonrenal Clearance"^^xsd:string ;
        mms:inValueDomain         :C85493 .

:C66786.C16874  a                 mms:PermissibleValue ;
        cts:cdiscDefinition       "A country in Western Europe, bordering the Mediterranean Sea on the southern coast of France, near the border with Italy. (NCI)"^^xsd:string ;
        cts:cdiscSubmissionValue  "MCO"^^xsd:string ;
        cts:cdiscSynonyms         "MONACO"^^xsd:string ;
        cts:nciCode               "C16874"^^xsd:string ;
        cts:nciPreferredTerm      "Monaco"^^xsd:string ;
        mms:inValueDomain         :C66786 .

:C74456.C12664  a                 mms:PermissibleValue ;
        cts:cdiscDefinition       "The portion of the body that lies between the thorax and the pelvis. (NCI)"^^xsd:string ;
        cts:cdiscSubmissionValue  "ABDOMINAL CAVITY"^^xsd:string ;
        cts:cdiscSynonyms         "Abdomen; Abdominal Cavity"^^xsd:string ;
        cts:nciCode               "C12664"^^xsd:string ;
        cts:nciPreferredTerm      "Abdominal Cavity"^^xsd:string ;
        mms:inValueDomain         :C74456 .

:C100130.C96582  a                mms:PermissibleValue ;
        cts:cdiscDefinition       "A relative who is the offspring of a sibling of the biological father and share a common ancestor."^^xsd:string ;
        cts:cdiscSubmissionValue  "COUSIN, BIOLOGICAL PATERNAL"^^xsd:string ;
        cts:cdiscSynonyms         "Biological Paternal Cousin"^^xsd:string ;
        cts:nciCode               "C96582"^^xsd:string ;
        cts:nciPreferredTerm      "Biological Paternal Cousin"^^xsd:string ;
        mms:inValueDomain         :C100130 .

:C99074.C90386  a                 mms:PermissibleValue ;
        cts:cdiscDefinition       "Of or involving the front of a main body. (NCI)"^^xsd:string ;
        cts:cdiscSubmissionValue  "FORE"^^xsd:string ;
        cts:nciCode               "C90386"^^xsd:string ;
        cts:nciPreferredTerm      "Fore"^^xsd:string ;
        mms:inValueDomain         :C99074 .

:C88025.C7558  a                  mms:PermissibleValue ;
        cts:cdiscDefinition       "A malignant epithelial neoplasm arising from the lining of the uterine body cavity."^^xsd:string ;
        cts:cdiscSubmissionValue  "CARCINOMA, ENDOMETRIAL, MALIGNANT"^^xsd:string ;
        cts:cdiscSynonyms         "CARCINOMA OF ENDOMETRIUM; CARCINOMA OF THE ENDOMETRIUM"^^xsd:string ;
        cts:nciCode               "C7558"^^xsd:string ;
        cts:nciPreferredTerm      "Endometrial Carcinoma"^^xsd:string ;
        mms:inValueDomain         :C88025 .

:C67154.C82021  a                 mms:PermissibleValue ;
        cts:cdiscDefinition       "A measurement of the lactoferrin in a biological specimen."^^xsd:string ;
        cts:cdiscSubmissionValue  "Lactoferrin"^^xsd:string ;
        cts:cdiscSynonyms         "Lactoferrin; Lactotransferrin"^^xsd:string ;
        cts:nciCode               "C82021"^^xsd:string ;
        cts:nciPreferredTerm      "Lactoferrin Measurement"^^xsd:string ;
        mms:inValueDomain         :C67154 .

:C71620.C70455  a                 mms:PermissibleValue ;
        cts:cdiscDefinition       "A unit of fraction expressed as the ratio of the amount of substance of solute in moles to the amount of substance of the mixture in moles.(NCI)"^^xsd:string ;
        cts:cdiscSubmissionValue  "mol/mol"^^xsd:string ;
        cts:cdiscSynonyms         "Mole per Mole"^^xsd:string ;
        cts:nciCode               "C70455"^^xsd:string ;
        cts:nciPreferredTerm      "Mole per Mole"^^xsd:string ;
        mms:inValueDomain         :C71620 .

:C65047.C92543  a                 mms:PermissibleValue ;
        cts:cdiscDefinition       "A measurement of the hepatitis C viral load in a biological specimen."^^xsd:string ;
        cts:cdiscSubmissionValue  "HCVVLD"^^xsd:string ;
        cts:cdiscSynonyms         "HCV Viral Load"^^xsd:string ;
        cts:nciCode               "C92543"^^xsd:string ;
        cts:nciPreferredTerm      "Hepatitis C Viral Load Measurement"^^xsd:string ;
        mms:inValueDomain         :C65047 .

:C88025.C7368  a                  mms:PermissibleValue ;
        cts:cdiscDefinition       "A benign adnexal neoplasm arising from hair-bearing skin surfaces."^^xsd:string ;
        cts:cdiscSubmissionValue  "PILOMATRIXOMA, BENIGN"^^xsd:string ;
        cts:cdiscSynonyms         "BENIGN PILOMATRICOMA; PILOMATRIXOMA; CALCIFYING EPITHERLIOMA OF MALHERBE; BENIGN PILOMATRIXOMA; BENIGN HAIR FOLLICLE NEOPLASM"^^xsd:string ;
        cts:nciCode               "C7368"^^xsd:string ;
        cts:nciPreferredTerm      "Pilomatricoma"^^xsd:string ;
        mms:inValueDomain         :C88025 .

:C66729.C38277  a                 mms:PermissibleValue ;
        cts:cdiscDefinition       "Administration within a ventricle. (FDA)"^^xsd:string ;
        cts:cdiscSubmissionValue  "INTRAVENTRICULAR"^^xsd:string ;
        cts:nciCode               "C38277"^^xsd:string ;
        cts:nciPreferredTerm      "Intraventricular Route of Administration"^^xsd:string ;
        mms:inValueDomain         :C66729 .

:C67154.C74824  a                 mms:PermissibleValue ;
        cts:cdiscDefinition       "A measurement of the interleukin 27 in a biological specimen."^^xsd:string ;
        cts:cdiscSubmissionValue  "Interleukin 27"^^xsd:string ;
        cts:cdiscSynonyms         "Interleukin 27"^^xsd:string ;
        cts:nciCode               "C74824"^^xsd:string ;
        cts:nciPreferredTerm      "Interleukin 27 Measurement"^^xsd:string ;
        mms:inValueDomain         :C67154 .

:C67154.C79463  a                 mms:PermissibleValue ;
        cts:cdiscDefinition       "A relative measurement (ratio or percentage) of the protein to creatinine in a biological specimen."^^xsd:string ;
        cts:cdiscSubmissionValue  "Protein/Creatinine"^^xsd:string ;
        cts:cdiscSynonyms         "Protein/Creatinine"^^xsd:string ;
        cts:nciCode               "C79463"^^xsd:string ;
        cts:nciPreferredTerm      "Protein to Creatinine Ratio Measurement"^^xsd:string ;
        mms:inValueDomain         :C67154 .

:C71620.C71169  a                 mms:PermissibleValue ;
        cts:cdiscDefinition       "A unit of volumetric radioactivity concentration defined as a concentration of a radionuclide with an activity equal to one million Becquerels per unit volume equal to one millionth of a liter.(NCI)"^^xsd:string ;
        cts:cdiscSubmissionValue  "MBq/uL"^^xsd:string ;
        cts:cdiscSynonyms         "Megabecquerel per Microliter; GBq/mL; Gigabecquerel per Milliliter"^^xsd:string ;
        cts:nciCode               "C71169"^^xsd:string ;
        cts:nciPreferredTerm      "Megabecquerel per Microliter"^^xsd:string ;
        mms:inValueDomain         :C71620 .

:C74559.C102666  a                mms:PermissibleValue ;
        cts:cdiscDefinition       "An indication that a subject is part of a population group that has a greater chance of contracting a disease or disorder."^^xsd:string ;
        cts:cdiscSubmissionValue  "RISKPOP"^^xsd:string ;
        cts:cdiscSynonyms         "Member of High Risk Population"^^xsd:string ;
        cts:nciCode               "C102666"^^xsd:string ;
        cts:nciPreferredTerm      "Member Of High Risk Population"^^xsd:string ;
        mms:inValueDomain         :C74559 .

:C67154.C74634  a                 mms:PermissibleValue ;
        cts:cdiscDefinition       "A relative measurement (ratio or percentage) of bite cells (erythrocytes with the appearance of a bite having been removed, due to oxidative hemolysis) to all erythrocytes in a biological specimen ."^^xsd:string ;
        cts:cdiscSubmissionValue  "Bite Cells/Erythrocytes"^^xsd:string ;
        cts:cdiscSynonyms         "Bite Cells/Erythrocytes"^^xsd:string ;
        cts:nciCode               "C74634"^^xsd:string ;
        cts:nciPreferredTerm      "Bite Cell to Erythrocyte Ratio Measurement"^^xsd:string ;
        mms:inValueDomain         :C67154 .

:C67154.C81999  a                 mms:PermissibleValue ;
        cts:cdiscDefinition       "A measurement of the total amyloid beta in a biological specimen."^^xsd:string ;
        cts:cdiscSubmissionValue  "Amyloid, Beta"^^xsd:string ;
        cts:cdiscSynonyms         "Amyloid, Beta; Beta Amyloid"^^xsd:string ;
        cts:nciCode               "C81999"^^xsd:string ;
        cts:nciPreferredTerm      "Beta Amyloid Measurement"^^xsd:string ;
        mms:inValueDomain         :C67154 .

:C102579.C35869  a                mms:PermissibleValue ;
        cts:cdiscDefinition       "Objective evidence of disease perceptible to the examiner by radiological procedure."^^xsd:string ;
        cts:cdiscSubmissionValue  "RADIOLOGIC FINDING"^^xsd:string ;
        cts:nciCode               "C35869"^^xsd:string ;
        cts:nciPreferredTerm      "Radiologic Finding"^^xsd:string ;
        mms:inValueDomain         :C102579 .

:C71153.C62095  a                 mms:PermissibleValue ;
        cts:cdiscDefinition       "The average (mean) number of cycles of contraction and subsequent relaxation of the heart, usually expressed as beats per minute, obtained from a set of measurements of the heart rate. (NCI)"^^xsd:string ;
        cts:cdiscSubmissionValue  "HRMEAN"^^xsd:string ;
        cts:cdiscSynonyms         "Summary (Mean) Heart Rate"^^xsd:string ;
        cts:nciCode               "C62095"^^xsd:string ;
        cts:nciPreferredTerm      "Mean Heart Rate"^^xsd:string ;
        mms:inValueDomain         :C71153 .

:C65047.C98745  a                 mms:PermissibleValue ;
        cts:cdiscDefinition       "A measurement of the Immunoglobulin D in a biological specimen."^^xsd:string ;
        cts:cdiscSubmissionValue  "IGD"^^xsd:string ;
        cts:cdiscSynonyms         "Immunoglobulin D"^^xsd:string ;
        cts:nciCode               "C98745"^^xsd:string ;
        cts:nciPreferredTerm      "Immunoglobulin D Measurement"^^xsd:string ;
        mms:inValueDomain         :C65047 .

:C71113.C64513  a                 mms:PermissibleValue ;
        cts:cdiscDefinition       "Every twenty-two hours. (NCI)"^^xsd:string ;
        cts:cdiscSubmissionValue  "Q22H"^^xsd:string ;
        cts:cdiscSynonyms         "Every 22 hours"^^xsd:string ;
        cts:nciCode               "C64513"^^xsd:string ;
        cts:nciPreferredTerm      "Every Twenty-Two Hours"^^xsd:string ;
        mms:inValueDomain         :C71113 .

:C67154.C75348  a                 mms:PermissibleValue ;
        cts:cdiscDefinition       "A measurement of the methamphetamine drug present in a biological specimen."^^xsd:string ;
        cts:cdiscSubmissionValue  "Methamphetamine"^^xsd:string ;
        cts:cdiscSynonyms         "Methamphetamine"^^xsd:string ;
        cts:nciCode               "C75348"^^xsd:string ;
        cts:nciPreferredTerm      "Methamphetamine Measurement"^^xsd:string ;
        mms:inValueDomain         :C67154 .

:C65047.C74878  a                 mms:PermissibleValue ;
        cts:cdiscDefinition       "A measurement of the dihydrocodeine present in a biological specimen."^^xsd:string ;
        cts:cdiscSubmissionValue  "DIHYDCDN"^^xsd:string ;
        cts:cdiscSynonyms         "Dihydrocodeine"^^xsd:string ;
        cts:nciCode               "C74878"^^xsd:string ;
        cts:nciPreferredTerm      "Dihydrocodeine Measurement"^^xsd:string ;
        mms:inValueDomain         :C65047 .

:C71151.C71101  a                 mms:PermissibleValue ;
        cts:cdiscDefinition       "An electrocardiogram (ECG) lead placement whereby 12 leadpoints are recorded but the position of the leads is unspecified. (NCI)"^^xsd:string ;
        cts:cdiscSubmissionValue  "12 LEAD UNSPECIFIED"^^xsd:string ;
        cts:cdiscSynonyms         "12 Lead Unspecified"^^xsd:string ;
        cts:nciCode               "C71101"^^xsd:string ;
        cts:nciPreferredTerm      "12 Lead Placement Unspecified"^^xsd:string ;
        mms:inValueDomain         :C71151 .

:C85494.C85726  a                 mms:PermissibleValue ;
        cts:cdiscDefinition       "Minutes times kilograms per milliliter."^^xsd:string ;
        cts:cdiscSubmissionValue  "min*kg/mL"^^xsd:string ;
        cts:cdiscSynonyms         "kg*min/mL; g*min/uL; min*g/uL; min*kg/mL"^^xsd:string ;
        cts:nciCode               "C85726"^^xsd:string ;
        cts:nciPreferredTerm      "Minute Times Kilogram per Milliliter"^^xsd:string ;
        mms:inValueDomain         :C85494 .

:C65047.C74688  a                 mms:PermissibleValue ;
        cts:cdiscDefinition       "A measurement of any barbiturate class drug present in a biological specimen."^^xsd:string ;
        cts:cdiscSubmissionValue  "BARB"^^xsd:string ;
        cts:cdiscSynonyms         "Barbiturates"^^xsd:string ;
        cts:nciCode               "C74688"^^xsd:string ;
        cts:nciPreferredTerm      "Barbiturate Drug Class Measurement"^^xsd:string ;
        mms:inValueDomain         :C65047 .

:C85491.C86407  a                 mms:PermissibleValue ;
        cts:cdiscDefinition       "Any bacterial organism that can be assigned to the species Fusobacterium varium."^^xsd:string ;
        cts:cdiscSubmissionValue  "FUSOBACTERIUM VARIUM"^^xsd:string ;
        cts:cdiscSynonyms         "FUSOBACTERIUM PSEUDONECROPHORUM; FUSOBACTERIUM NECROPHORUM BIOVAR C"^^xsd:string ;
        cts:nciCode               "C86407"^^xsd:string ;
        cts:nciPreferredTerm      "Fusobacterium varium"^^xsd:string ;
        mms:inValueDomain         :C85491 .

:C71150.C50800  a                 mms:PermissibleValue ;
        cts:cdiscDefinition       "A ventricular tachyarrhythmia characterized by a high ventricular rate (180 and 250 beats per minute) with a regular rhythm. The electrocardiogram shows large oscillating sine wave-like complexes occurring as a result of QRS complexes and T waves being merged. The P wave is not visible. (NCI)"^^xsd:string ;
        cts:cdiscSubmissionValue  "VENTRICULAR FLUTTER"^^xsd:string ;
        cts:cdiscSynonyms         "Ventricular flutter"^^xsd:string ;
        cts:nciCode               "C50800"^^xsd:string ;
        cts:nciPreferredTerm      "Ventricular Flutter"^^xsd:string ;
        mms:inValueDomain         :C71150 .

:C67154.C84811  a                 mms:PermissibleValue ;
        cts:cdiscDefinition       "A measurement of the non-phosphorylated Tau protein in a biological specimen."^^xsd:string ;
        cts:cdiscSubmissionValue  "Non-Phosphorylated Tau Protein"^^xsd:string ;
        cts:cdiscSynonyms         "Non-Phosphorylated Tau Protein"^^xsd:string ;
        cts:nciCode               "C84811"^^xsd:string ;
        cts:nciPreferredTerm      "Nonphosphorylated Tau Protein Measurement"^^xsd:string ;
        mms:inValueDomain         :C67154 .

:C85491.C76319  a                 mms:PermissibleValue ;
        cts:cdiscDefinition       "Any bacterial organism that can be assigned to the species Pseudomonas oryzihabitans."^^xsd:string ;
        cts:cdiscSubmissionValue  "PSEUDOMONAS ORYZIHABITANS"^^xsd:string ;
        cts:cdiscSynonyms         "FLAVIMONAS ORYZIHABITANS"^^xsd:string ;
        cts:nciCode               "C76319"^^xsd:string ;
        cts:nciPreferredTerm      "Pseudomonas oryzihabitans"^^xsd:string ;
        mms:inValueDomain         :C85491 .

:C85839.C92310  a                 mms:PermissibleValue ;
        cts:cdiscDefinition       "The area under the curve (AUC) from the time of dosing to the last measurable concentration divided by the dose."^^xsd:string ;
        cts:cdiscSubmissionValue  "AUCLSTD"^^xsd:string ;
        cts:cdiscSynonyms         "AUC to Last Nonzero Conc Norm by Dose"^^xsd:string ;
        cts:nciCode               "C92310"^^xsd:string ;
        cts:nciPreferredTerm      "AUC Dosing to Last Concentration Normalized by Dose"^^xsd:string ;
        mms:inValueDomain         :C85839 .

:C66726.C42961  a                 mms:PermissibleValue ;
        cts:cdiscDefinition       "A powder dosage form that is situated inside a container that has a mechanism to deliver a specified quantity. (NCI)"^^xsd:string ;
        cts:cdiscSubmissionValue  "POWDER, METERED"^^xsd:string ;
        cts:nciCode               "C42961"^^xsd:string ;
        cts:nciPreferredTerm      "Metered Powder Dosage Form"^^xsd:string ;
        mms:inValueDomain         :C66726 .

:C85491.C86217  a                 mms:PermissibleValue ;
        cts:cdiscDefinition       "Any bacterial organism that can be assigned to the species Brucella canis."^^xsd:string ;
        cts:cdiscSubmissionValue  "BRUCELLA CANIS"^^xsd:string ;
        cts:nciCode               "C86217"^^xsd:string ;
        cts:nciPreferredTerm      "Brucella canis"^^xsd:string ;
        mms:inValueDomain         :C85491 .

:C74456.C33073  a                 mms:PermissibleValue ;
        cts:cdiscDefinition       "A lymph node located in the mediastinum. Mediastinal lymph nodes are arranged in three groups, one on the lateral, another on the medial, and a third on the anterior aspect of the vessels; the third group is, however, sometimes absent. (NCI)"^^xsd:string ;
        cts:cdiscSubmissionValue  "MEDIASTINAL LYMPH NODE"^^xsd:string ;
        cts:cdiscSynonyms         "Mediastinal Lymph Node"^^xsd:string ;
        cts:nciCode               "C33073"^^xsd:string ;
        cts:nciPreferredTerm      "Mediastinal Lymph Node"^^xsd:string ;
        mms:inValueDomain         :C74456 .

:C101865.C66914  a                mms:PermissibleValue ;
        cts:cdiscDefinition       "Angina pectoris which has not recently changed in frequency, duration or intensity. Stable angina pectoris is relieved by rest or administration of oral, sublingual or transdermal antianginal medications."^^xsd:string ;
        cts:cdiscSubmissionValue  "STABLE ANGINA"^^xsd:string ;
        cts:nciCode               "C66914"^^xsd:string ;
        cts:nciPreferredTerm      "Stable Angina"^^xsd:string ;
        mms:inValueDomain         :C101865 .

:C67154.C92281  a                 mms:PermissibleValue ;
        cts:cdiscDefinition       "A measurement of the Smith antibody in a biological specimen."^^xsd:string ;
        cts:cdiscSubmissionValue  "Smith Antibody"^^xsd:string ;
        cts:cdiscSynonyms         "Smith Antibody"^^xsd:string ;
        cts:nciCode               "C92281"^^xsd:string ;
        cts:nciPreferredTerm      "Smith Antibody Measurement"^^xsd:string ;
        mms:inValueDomain         :C67154 .

:C65047.C106514  a                mms:PermissibleValue ;
        cts:cdiscDefinition       "A measurement of the cytokeratin 19 fragment 21-1 in a biological specimen."^^xsd:string ;
        cts:cdiscSubmissionValue  "CYFRA211"^^xsd:string ;
        cts:cdiscSynonyms         "Cytokeratin Fragment 21-1; Cytokeratin 19 Fragment; CYFRA21-1"^^xsd:string ;
        cts:nciCode               "C106514"^^xsd:string ;
        cts:nciPreferredTerm      "Cytokeratin Fragment 21-1 Measurement"^^xsd:string ;
        mms:inValueDomain         :C65047 .

:C71620.C67308  a                 mms:PermissibleValue ;
        cts:cdiscDefinition       "A unit of measurement equal to 10 to the twelfth power of the number of entities per unit of volume equal to one liter."^^xsd:string ;
        cts:cdiscSubmissionValue  "10^12/L"^^xsd:string ;
        cts:cdiscSynonyms         "10^6/uL"^^xsd:string ;
        cts:nciCode               "C67308"^^xsd:string ;
        cts:nciPreferredTerm      "Million per Microliter"^^xsd:string ;
        mms:inValueDomain         :C71620 .

:C90013  a                        mms:EnumeratedValueDomain ;
        cts:cdiscDefinition       "Terminology related to electrocardiogram lead names."^^xsd:string ;
        cts:cdiscSubmissionValue  "EGLEAD"^^xsd:string ;
        cts:cdiscSynonyms         "ECG Lead"^^xsd:string ;
        cts:codelistName          "ECG Lead"^^xsd:string ;
        cts:isExtensibleCodelist  true ;
        cts:nciCode               "C90013"^^xsd:string ;
        cts:nciPreferredTerm      "CDISC SDTM Electrocardiogram Lead Terminology"^^xsd:string .

:C74456.C12817  a                 mms:PermissibleValue ;
        cts:cdiscDefinition       "A large vein which returns blood from the head, neck and extremities to the heart. (NCI)"^^xsd:string ;
        cts:cdiscSubmissionValue  "VENA CAVA"^^xsd:string ;
        cts:cdiscSynonyms         "Vena Cava"^^xsd:string ;
        cts:nciCode               "C12817"^^xsd:string ;
        cts:nciPreferredTerm      "Vena Cava"^^xsd:string ;
        mms:inValueDomain         :C74456 .

:C85491.C86959  a                 mms:PermissibleValue ;
        cts:cdiscDefinition       "Any bacterial organism that can be assigned to the species Sphingobacterium multivorum."^^xsd:string ;
        cts:cdiscSubmissionValue  "SPHINGOBACTERIUM MULTIVORUM"^^xsd:string ;
        cts:cdiscSynonyms         "CDC GROUP IIK-2"^^xsd:string ;
        cts:nciCode               "C86959"^^xsd:string ;
        cts:nciPreferredTerm      "Sphingobacterium multivorum"^^xsd:string ;
        mms:inValueDomain         :C85491 .

:C66786.C16647  a                 mms:PermissibleValue ;
        cts:cdiscDefinition       "An island between the Caribbean Sea and Atlantic Ocean, north of Trinidad and Tobago. (NCI)"^^xsd:string ;
        cts:cdiscSubmissionValue  "GRD"^^xsd:string ;
        cts:cdiscSynonyms         "GRENADA"^^xsd:string ;
        cts:nciCode               "C16647"^^xsd:string ;
        cts:nciPreferredTerm      "Grenada"^^xsd:string ;
        mms:inValueDomain         :C66786 .

:C85491.C86769  a                 mms:PermissibleValue ;
        cts:cdiscDefinition       "Any bacterial organism that can be assigned to the species Staphylococcus saccharolyticus."^^xsd:string ;
        cts:cdiscSubmissionValue  "STAPHYLOCOCCUS SACCHAROLYTICUS"^^xsd:string ;
        cts:cdiscSynonyms         "PEPTOCOCCUS SACCHAROLYTICUS"^^xsd:string ;
        cts:nciCode               "C86769"^^xsd:string ;
        cts:nciPreferredTerm      "Staphylococcus saccharolyticus"^^xsd:string ;
        mms:inValueDomain         :C85491 .

:C71620.C48549  a                 mms:PermissibleValue ;
        cts:cdiscDefinition       "A dosing measurement based on the tube unit.(NCI)"^^xsd:string ;
        cts:cdiscSubmissionValue  "TUBE"^^xsd:string ;
        cts:cdiscSynonyms         "Tube Dosing Unit"^^xsd:string ;
        cts:nciCode               "C48549"^^xsd:string ;
        cts:nciPreferredTerm      "Tube Dosing Unit"^^xsd:string ;
        mms:inValueDomain         :C71620 .

:C67152.C98768  a                 mms:PermissibleValue ;
        cts:cdiscDefinition       "The pharmacological class of the investigational product."^^xsd:string ;
        cts:cdiscSubmissionValue  "Pharmacological Class of Invest. Therapy"^^xsd:string ;
        cts:cdiscSynonyms         "Pharmacological Class of Invest. Therapy"^^xsd:string ;
        cts:nciCode               "C98768"^^xsd:string ;
        cts:nciPreferredTerm      "Pharmacological Class of Investigational Therapy"^^xsd:string ;
        mms:inValueDomain         :C67152 .

:C101863.C99909  a                mms:PermissibleValue ;
        cts:cdiscDefinition       "The patient will be admitted to a medical center that is funded by the federal government (e.g. Veterans Affairs Hospital)."^^xsd:string ;
        cts:cdiscSubmissionValue  "Federal Health Care Facility"^^xsd:string ;
        cts:nciCode               "C99909"^^xsd:string ;
        cts:nciPreferredTerm      "Federal Health Care Facility"^^xsd:string ;
        mms:inValueDomain         :C101863 .

:C66786.C16267  a                 mms:PermissibleValue ;
        cts:cdiscDefinition       "A country in Southern Asia, north and west of Pakistan, east of Iran. (NCI)"^^xsd:string ;
        cts:cdiscSubmissionValue  "AFG"^^xsd:string ;
        cts:cdiscSynonyms         "AFGHANISTAN"^^xsd:string ;
        cts:nciCode               "C16267"^^xsd:string ;
        cts:nciPreferredTerm      "Afghanistan"^^xsd:string ;
        mms:inValueDomain         :C66786 .

:C85491.C86389  a                 mms:PermissibleValue ;
        cts:cdiscDefinition       "Any bacterial organism that can be assigned to the species Eubacterium ventriosum."^^xsd:string ;
        cts:cdiscSubmissionValue  "EUBACTERIUM VENTRIOSUM"^^xsd:string ;
        cts:nciCode               "C86389"^^xsd:string ;
        cts:nciPreferredTerm      "Eubacterium ventriosum"^^xsd:string ;
        mms:inValueDomain         :C85491 .

:C85493.C85644  a                 mms:PermissibleValue ;
        cts:cdiscDefinition       "Initial concentration. Given only for bolus IV models."^^xsd:string ;
        cts:cdiscSubmissionValue  "Initial Conc"^^xsd:string ;
        cts:cdiscSynonyms         "Initial Conc"^^xsd:string ;
        cts:nciCode               "C85644"^^xsd:string ;
        cts:nciPreferredTerm      "Initial Concentration"^^xsd:string ;
        mms:inValueDomain         :C85493 .

:C96778.C96634  a                 mms:PermissibleValue ;
        cts:cdiscDefinition       "A calculation of the aggregated diameter values taken from the viable portion of the tumor mass."^^xsd:string ;
        cts:cdiscSubmissionValue  "Sum of Viable Diameter"^^xsd:string ;
        cts:cdiscSynonyms         "Sum of Viable Diameter"^^xsd:string ;
        cts:nciCode               "C96634"^^xsd:string ;
        cts:nciPreferredTerm      "Sum of Viable Diameters"^^xsd:string ;
        mms:inValueDomain         :C96778 .

:C85491.C86199  a                 mms:PermissibleValue ;
        cts:cdiscDefinition       "Any bacterial organism that can be assigned to the species Bifidobacterium longum."^^xsd:string ;
        cts:cdiscSubmissionValue  "BIFIDOBACTERIUM LONGUM"^^xsd:string ;
        cts:nciCode               "C86199"^^xsd:string ;
        cts:nciPreferredTerm      "Bifidobacterium longum"^^xsd:string ;
        mms:inValueDomain         :C85491 .

:C66786.C17221  a                 mms:PermissibleValue ;
        cts:cdiscDefinition       "A country in Northern Africa, bordering the Mediterranean Sea, between Algeria and Libya. (NCI)"^^xsd:string ;
        cts:cdiscSubmissionValue  "TUN"^^xsd:string ;
        cts:cdiscSynonyms         "TUNISIA"^^xsd:string ;
        cts:nciCode               "C17221"^^xsd:string ;
        cts:nciPreferredTerm      "Tunisia"^^xsd:string ;
        mms:inValueDomain         :C66786 .

:C65047.C82038  a                 mms:PermissibleValue ;
        cts:cdiscDefinition       "A measurement of the type I collagen C-telopeptides in a biological specimen."^^xsd:string ;
        cts:cdiscSubmissionValue  "CTXI"^^xsd:string ;
        cts:cdiscSynonyms         "Type I Collagen C-Telopeptides; Type I Collagen X-linked C-telopeptide"^^xsd:string ;
        cts:nciCode               "C82038"^^xsd:string ;
        cts:nciPreferredTerm      "Type I Collagen C-Telopeptide Measurement"^^xsd:string ;
        mms:inValueDomain         :C65047 .

:C65047.C74701  a                 mms:PermissibleValue ;
        cts:cdiscDefinition       "A measurement of the Burr cells (erythrocytes characterized by the presence of small, blunt projections evenly distributed across the cell surface) in a biological specimen."^^xsd:string ;
        cts:cdiscSubmissionValue  "BURRCE"^^xsd:string ;
        cts:cdiscSynonyms         "Burr Cells; Keratocytes"^^xsd:string ;
        cts:nciCode               "C74701"^^xsd:string ;
        cts:nciPreferredTerm      "Burr Cell Count"^^xsd:string ;
        mms:inValueDomain         :C65047 .

:C67154.C64832  a                 mms:PermissibleValue ;
        cts:cdiscDefinition       "A ratio of the density of a fluid to the density of water."^^xsd:string ;
        cts:cdiscSubmissionValue  "Specific Gravity"^^xsd:string ;
        cts:cdiscSynonyms         "Specific Gravity"^^xsd:string ;
        cts:nciCode               "C64832"^^xsd:string ;
        cts:nciPreferredTerm      "Specific Gravity"^^xsd:string ;
        mms:inValueDomain         :C67154 .

:C66726.C42924  a                 mms:PermissibleValue ;
        cts:cdiscDefinition       "A drug delivery system in the form of a suppository that allows at least a reduction in dosing frequency. (NCI)"^^xsd:string ;
        cts:cdiscSubmissionValue  "SUPPOSITORY, EXTENDED RELEASE"^^xsd:string ;
        cts:nciCode               "C42924"^^xsd:string ;
        cts:nciPreferredTerm      "Extended Release Suppository Dosage Form"^^xsd:string ;
        mms:inValueDomain         :C66726 .

:C74456.C12799  a                 mms:PermissibleValue ;
        cts:cdiscDefinition       "The division of the body lying between the neck and the abdomen. (NCI)"^^xsd:string ;
        cts:cdiscSubmissionValue  "THORAX"^^xsd:string ;
        cts:cdiscSynonyms         "Thorax"^^xsd:string ;
        cts:nciCode               "C12799"^^xsd:string ;
        cts:nciPreferredTerm      "Thorax"^^xsd:string ;
        mms:inValueDomain         :C74456 .

:C66734.C102641  a                mms:PermissibleValue ;
        cts:cdiscDefinition       "A domain for physiological findings related to the hematopoietic system, including the bone marrow and lymph nodes involved in the production of blood."^^xsd:string ;
        cts:cdiscSubmissionValue  "HM"^^xsd:string ;
        cts:cdiscSynonyms         "Hematopoietic System Findings"^^xsd:string ;
        cts:nciCode               "C102641"^^xsd:string ;
        cts:nciPreferredTerm      "Hematopoietic System Findings Domain"^^xsd:string ;
        mms:inValueDomain         :C66734 .

:C67154.C92244  a                 mms:PermissibleValue ;
        cts:cdiscDefinition       "A measurement of the amorphous urate crystals in a biological specimen."^^xsd:string ;
        cts:cdiscSubmissionValue  "Amorphous Urate Crystals"^^xsd:string ;
        cts:cdiscSynonyms         "Amorphous Urate Crystals"^^xsd:string ;
        cts:nciCode               "C92244"^^xsd:string ;
        cts:nciPreferredTerm      "Amorphous Urate Crystals Measurement"^^xsd:string ;
        mms:inValueDomain         :C67154 .

:C67154.C96588  a                 mms:PermissibleValue ;
        cts:cdiscDefinition       "A measurement of the broad casts in a biological specimen."^^xsd:string ;
        cts:cdiscSubmissionValue  "Broad Casts"^^xsd:string ;
        cts:cdiscSynonyms         "Broad Casts"^^xsd:string ;
        cts:nciCode               "C96588"^^xsd:string ;
        cts:nciPreferredTerm      "Broad Casts Measurement"^^xsd:string ;
        mms:inValueDomain         :C67154 .

:C85493.C102371  a                mms:PermissibleValue ;
        cts:cdiscDefinition       "The initial volume of distribution for a substance administered by bolus intravascular dosing."^^xsd:string ;
        cts:cdiscSubmissionValue  "Vol Dist Initial"^^xsd:string ;
        cts:cdiscSynonyms         "Vol Dist Initial"^^xsd:string ;
        cts:nciCode               "C102371"^^xsd:string ;
        cts:nciPreferredTerm      "Initial Volume of Distribution"^^xsd:string ;
        mms:inValueDomain         :C85493 .

:C71150.C92227  a                 mms:PermissibleValue ;
        cts:cdiscDefinition       "An electrocardiographic finding in which there are two R waves, which are two deflections above the baseline resulting from a single ventricular depolarization. The first upward deflection in the complex is the R wave. The S is the first downward deflection. A second upward deflection is called the R-prime wave."^^xsd:string ;
        cts:cdiscSubmissionValue  "RSR PRIME"^^xsd:string ;
        cts:cdiscSynonyms         "RSR'"^^xsd:string ;
        cts:nciCode               "C92227"^^xsd:string ;
        cts:nciPreferredTerm      "RSR'"^^xsd:string ;
        mms:inValueDomain         :C71150 .

:C78734.C33156  a                 mms:PermissibleValue ;
        cts:cdiscDefinition       "The cutaneous plate on the dorsal surface of the distal end of a finger or toe. (NCI)"^^xsd:string ;
        cts:cdiscSubmissionValue  "NAIL"^^xsd:string ;
        cts:nciCode               "C33156"^^xsd:string ;
        cts:nciPreferredTerm      "Nail"^^xsd:string ;
        mms:inValueDomain         :C78734 .

:C67154.C102279  a                mms:PermissibleValue ;
        cts:cdiscDefinition       "A measurement of the partial pressure of oxygen when hemoglobin is half saturated in a biological specimen."^^xsd:string ;
        cts:cdiscSubmissionValue  "P50 Oxygen"^^xsd:string ;
        cts:cdiscSynonyms         "P50 Oxygen"^^xsd:string ;
        cts:nciCode               "C102279"^^xsd:string ;
        cts:nciPreferredTerm      "P50 Oxygen Measurement"^^xsd:string ;
        mms:inValueDomain         :C67154 .

:C67154.C74769  a                 mms:PermissibleValue ;
        cts:cdiscDefinition       "A measurement of the fine granular casts present in a biological specimen."^^xsd:string ;
        cts:cdiscSubmissionValue  "Granular Fine Casts"^^xsd:string ;
        cts:cdiscSynonyms         "Granular Fine Casts"^^xsd:string ;
        cts:nciCode               "C74769"^^xsd:string ;
        cts:nciPreferredTerm      "Granular Fine Cast Measurement"^^xsd:string ;
        mms:inValueDomain         :C67154 .

:C65047.C92298  a                 mms:PermissibleValue ;
        cts:cdiscDefinition       "Examination of a biological specimen to detect the presence of Neisseria gonorrhoeae."^^xsd:string ;
        cts:cdiscSubmissionValue  "NGON"^^xsd:string ;
        cts:cdiscSynonyms         "Neisseria gonorrhoeae Screening"^^xsd:string ;
        cts:nciCode               "C92298"^^xsd:string ;
        cts:nciPreferredTerm      "Neisseria gonorrhoeae Screening"^^xsd:string ;
        mms:inValueDomain         :C65047 .

:C66729.C38272  a                 mms:PermissibleValue ;
        cts:cdiscDefinition       "Administration within the uterus. (FDA)"^^xsd:string ;
        cts:cdiscSubmissionValue  "INTRAUTERINE"^^xsd:string ;
        cts:nciCode               "C38272"^^xsd:string ;
        cts:nciPreferredTerm      "Intrauterine Route of Administration"^^xsd:string ;
        mms:inValueDomain         :C66729 .

:C88025.C7173  a                  mms:PermissibleValue ;
        cts:cdiscDefinition       "A malignant astrocytic neoplasm characterized by a high degree of cellular differentiation, slow growth, and diffuse infiltration of neighboring brain structures."^^xsd:string ;
        cts:cdiscSubmissionValue  "ASTROCYTOMA, DIFFUSE, MALIGNANT"^^xsd:string ;
        cts:cdiscSynonyms         "ASTROCYTOMA, DIFFUSE"^^xsd:string ;
        cts:nciCode               "C7173"^^xsd:string ;
        cts:nciPreferredTerm      "Diffuse Astrocytoma"^^xsd:string ;
        mms:inValueDomain         :C88025 .

:C67154.C81994  a                 mms:PermissibleValue ;
        cts:cdiscDefinition       "A measurement of the interferon alpha in a biological specimen."^^xsd:string ;
        cts:cdiscSubmissionValue  "Interferon Alpha"^^xsd:string ;
        cts:cdiscSynonyms         "Interferon Alpha"^^xsd:string ;
        cts:nciCode               "C81994"^^xsd:string ;
        cts:nciPreferredTerm      "Interferon Alpha Measurement"^^xsd:string ;
        mms:inValueDomain         :C67154 .

:C71153.C62090  a                 mms:PermissibleValue ;
        cts:cdiscDefinition       "The average (mean) duration (time) of the RR interval, obtained from a set of measurements of the RR interval. The RR interval is defined as the time between successive peaks of the R wave and can be used to measure the ventricular rate. (NCI)"^^xsd:string ;
        cts:cdiscSubmissionValue  "RRMEAN"^^xsd:string ;
        cts:cdiscSynonyms         "Summary (Mean) RR Duration"^^xsd:string ;
        cts:nciCode               "C62090"^^xsd:string ;
        cts:nciPreferredTerm      "EKG Mean RR Duration"^^xsd:string ;
        mms:inValueDomain         :C71153 .

:C65047.C98740  a                 mms:PermissibleValue ;
        cts:cdiscDefinition       "A measurement of the human anti-sheep IgE antibodies in a biological specimen."^^xsd:string ;
        cts:cdiscSubmissionValue  "HASIGEAB"^^xsd:string ;
        cts:cdiscSynonyms         "Human Anti-Sheep IgE Antibody"^^xsd:string ;
        cts:nciCode               "C98740"^^xsd:string ;
        cts:nciPreferredTerm      "Human Anti-Sheep IgE Antibody Measurement"^^xsd:string ;
        mms:inValueDomain         :C65047 .

:C65047.C74873  a                 mms:PermissibleValue ;
        cts:cdiscDefinition       "A measurement of the thrombopoietin hormone in a biological specimen."^^xsd:string ;
        cts:cdiscSubmissionValue  "THRMPTN"^^xsd:string ;
        cts:cdiscSynonyms         "Thrombopoietin"^^xsd:string ;
        cts:nciCode               "C74873"^^xsd:string ;
        cts:nciPreferredTerm      "Thrombopoietin Measurement"^^xsd:string ;
        mms:inValueDomain         :C65047 .

:C85494.C85721  a                 mms:PermissibleValue ;
        cts:cdiscDefinition       "Millimoles per milliliter per hour."^^xsd:string ;
        cts:cdiscSubmissionValue  "mmol/mL/h"^^xsd:string ;
        cts:cdiscSynonyms         "mol/L/h; umol/uL/h; mmol/h/mL; mol/h/L; umol/h/uL; mmol/mL/h"^^xsd:string ;
        cts:nciCode               "C85721"^^xsd:string ;
        cts:nciPreferredTerm      "Millimole per Milliliter per Hour"^^xsd:string ;
        mms:inValueDomain         :C85494 .

:C74559.C74580  a                 mms:PermissibleValue ;
        cts:cdiscDefinition       "A distinctive characteristic of the skin marked by the amount of sebum secreted by sebaceous glands."^^xsd:string ;
        cts:cdiscSubmissionValue  "SKINTYP"^^xsd:string ;
        cts:cdiscSynonyms         "Skin Type"^^xsd:string ;
        cts:nciCode               "C74580"^^xsd:string ;
        cts:nciPreferredTerm      "Skin Type"^^xsd:string ;
        mms:inValueDomain         :C74559 .

:C65047.C74683  a                 mms:PermissibleValue ;
        cts:cdiscDefinition       "A measurement of the tyrosine crystals present in a biological specimen."^^xsd:string ;
        cts:cdiscSubmissionValue  "CYTYRO"^^xsd:string ;
        cts:cdiscSynonyms         "Tyrosine Crystals"^^xsd:string ;
        cts:nciCode               "C74683"^^xsd:string ;
        cts:nciPreferredTerm      "Tyrosine Crystal Measurement"^^xsd:string ;
        mms:inValueDomain         :C65047 .

:C85491.C86212  a                 mms:PermissibleValue ;
        cts:cdiscDefinition       "Any bacteria that is not assigned to the species level but can be assigned to the Brevundimonas genus level."^^xsd:string ;
        cts:cdiscSubmissionValue  "BREVUNDIMONAS"^^xsd:string ;
        cts:nciCode               "C86212"^^xsd:string ;
        cts:nciPreferredTerm      "Brevundimonas"^^xsd:string ;
        mms:inValueDomain         :C85491 .

:C85494.C48555  a                 mms:PermissibleValue ;
        cts:cdiscDefinition       "A unit of concentration (molarity unit) equal to one mole of solute in one liter of solution.(NCI)"^^xsd:string ;
        cts:cdiscSubmissionValue  "mol/L"^^xsd:string ;
        cts:cdiscSynonyms         "Mole per Liter; mol/L; mmol/mL"^^xsd:string ;
        cts:nciCode               "C48555"^^xsd:string ;
        cts:nciPreferredTerm      "Mole per Liter"^^xsd:string ;
        mms:inValueDomain         :C85494 .

:C78734.C78744  a                 mms:PermissibleValue ;
        cts:cdiscDefinition       "The fluid that passes through the wall of the veins and capillaries to the surrounding tissues because of increased intravascular pressure. It has low protein content. (NCI)"^^xsd:string ;
        cts:cdiscSubmissionValue  "TRANSUDATE"^^xsd:string ;
        cts:nciCode               "C78744"^^xsd:string ;
        cts:nciPreferredTerm      "Transudate"^^xsd:string ;
        mms:inValueDomain         :C78734 .

:C74456.C69300  a                 mms:PermissibleValue ;
        cts:cdiscDefinition       "A bone prominence to which ligaments and tendons of the joints are attached. (NCI)"^^xsd:string ;
        cts:cdiscSubmissionValue  "EPICONDYLE"^^xsd:string ;
        cts:cdiscSynonyms         "Epicondyle"^^xsd:string ;
        cts:nciCode               "C69300"^^xsd:string ;
        cts:nciPreferredTerm      "Epicondyle"^^xsd:string ;
        mms:inValueDomain         :C74456 .

:C71620.C73764  a                 mms:PermissibleValue ;
        cts:cdiscDefinition       "A rate of inflation or deflation of a manometric device based on the unit of pressure equal to 133,332 Pa or 1.316E10-3 standard atmosphere during period of time equal to one sixtieth of a minute. (NCI)"^^xsd:string ;
        cts:cdiscSubmissionValue  "mmHg/sec"^^xsd:string ;
        cts:cdiscSynonyms         "Millimeter of Mercury per Second"^^xsd:string ;
        cts:nciCode               "C73764"^^xsd:string ;
        cts:nciPreferredTerm      "mmHg/sec"^^xsd:string ;
        mms:inValueDomain         :C71620 .

:C85494.C66962  a                 mms:PermissibleValue ;
        cts:cdiscDefinition       "A unit of volumetric flow rate defined as the rate at which one milliliter of matter travels during the period of time equal to one hour.(NCI)"^^xsd:string ;
        cts:cdiscSubmissionValue  "mL/h"^^xsd:string ;
        cts:cdiscSynonyms         "Milliliters per Hour"^^xsd:string ;
        cts:nciCode               "C66962"^^xsd:string ;
        cts:nciPreferredTerm      "Milliliter per Hour"^^xsd:string ;
        mms:inValueDomain         :C85494 .

:C67154.C106547  a                mms:PermissibleValue ;
        cts:cdiscDefinition       "A measurement of myosin light chain 3 in a biological specimen."^^xsd:string ;
        cts:cdiscSubmissionValue  "Myosin Light Chain 3"^^xsd:string ;
        cts:cdiscSynonyms         "Myosin Light Chain 3; Cardiac myosin light chain 1; Myosin light chain 1, slow-twitch muscle B/ventricular isoform"^^xsd:string ;
        cts:nciCode               "C106547"^^xsd:string ;
        cts:nciPreferredTerm      "Myosin Light Chain 3 Measurement"^^xsd:string ;
        mms:inValueDomain         :C67154 .

:C66734.C85441  a                 mms:PermissibleValue ;
        cts:cdiscDefinition       "A dataset used to capture clinical events of interest that would not be classified as adverse events."^^xsd:string ;
        cts:cdiscSubmissionValue  "CE"^^xsd:string ;
        cts:cdiscSynonyms         "Clinical Events"^^xsd:string ;
        cts:nciCode               "C85441"^^xsd:string ;
        cts:nciPreferredTerm      "Clinical Events Domain"^^xsd:string ;
        mms:inValueDomain         :C66734 .

:C101856  a                       mms:EnumeratedValueDomain ;
        cts:cdiscDefinition       "A terminology codelist that describes the degree of urgency for a procedure."^^xsd:string ;
        cts:cdiscSubmissionValue  "PRURGNCY"^^xsd:string ;
        cts:cdiscSynonyms         "Procedure Urgency Status"^^xsd:string ;
        cts:codelistName          "Procedure Urgency Status"^^xsd:string ;
        cts:isExtensibleCodelist  false ;
        cts:nciCode               "C101856"^^xsd:string ;
        cts:nciPreferredTerm      "CDISC SDTM Procedure Urgency Status Terminology"^^xsd:string .

:C66734.C95099  a                 mms:PermissibleValue ;
        cts:cdiscDefinition       "The Subject Stages domain captures subject level non-treatment related blocks of time known as stages, such as Gestation, Lactation and Premating."^^xsd:string ;
        cts:cdiscSubmissionValue  "SJ"^^xsd:string ;
        cts:cdiscSynonyms         "Subject Stages"^^xsd:string ;
        cts:nciCode               "C95099"^^xsd:string ;
        cts:nciPreferredTerm      "Subject Stages Domain"^^xsd:string ;
        mms:inValueDomain         :C66734 .

:C67154.C64605  a                 mms:PermissibleValue ;
        cts:cdiscDefinition       "A measurement of the epithelial cells in a biological specimen."^^xsd:string ;
        cts:cdiscSubmissionValue  "Epithelial Cells"^^xsd:string ;
        cts:cdiscSynonyms         "Epithelial Cells"^^xsd:string ;
        cts:nciCode               "C64605"^^xsd:string ;
        cts:nciPreferredTerm      "Epithelial Cell Count"^^xsd:string ;
        mms:inValueDomain         :C67154 .

:C74456.C12812  a                 mms:PermissibleValue ;
        cts:cdiscDefinition       "The 10th cranial nerve. The vagus is a mixed nerve which contains somatic afferents (from skin in back of the ear and the external auditory meatus), visceral afferents (from the pharynx, larynx, thorax, and abdomen), parasympathetic efferents (to the thorax and abdomen), and efferents to striated muscle (of the larynx and pharynx). (MSH2001)"^^xsd:string ;
        cts:cdiscSubmissionValue  "VAGUS NERVE"^^xsd:string ;
        cts:nciCode               "C12812"^^xsd:string ;
        cts:nciPreferredTerm      "Vagus Nerve"^^xsd:string ;
        mms:inValueDomain         :C74456 .

:C85491.C86954  a                 mms:PermissibleValue ;
        cts:cdiscDefinition       "Any bacterial organism that can be assigned to the species Myroides odoratus."^^xsd:string ;
        cts:cdiscSubmissionValue  "MYROIDES ODORATUS"^^xsd:string ;
        cts:cdiscSynonyms         "FLAVOBACTERIUM ODORATUM"^^xsd:string ;
        cts:nciCode               "C86954"^^xsd:string ;
        cts:nciPreferredTerm      "Myroides odoratus"^^xsd:string ;
        mms:inValueDomain         :C85491 .

:C67154.C96601  a                 mms:PermissibleValue ;
        cts:cdiscDefinition       "A measurement of the Epstein-Barr capsid IgM antibody in a biological specimen."^^xsd:string ;
        cts:cdiscSubmissionValue  "Epstein-Barr Capsid IgM Antibody"^^xsd:string ;
        cts:cdiscSynonyms         "Epstein-Barr Capsid IgM Antibody"^^xsd:string ;
        cts:nciCode               "C96601"^^xsd:string ;
        cts:nciPreferredTerm      "Epstein-Barr Capsid IgM Antibody Measurement"^^xsd:string ;
        mms:inValueDomain         :C67154 .

:C67154.C63321  a                 mms:PermissibleValue ;
        cts:cdiscDefinition       "A measurement of the neutrophils in a biological specimen."^^xsd:string ;
        cts:cdiscSubmissionValue  "Neutrophils"^^xsd:string ;
        cts:cdiscSynonyms         "Neutrophils"^^xsd:string ;
        cts:nciCode               "C63321"^^xsd:string ;
        cts:nciPreferredTerm      "Absolute Neutrophil Count"^^xsd:string ;
        mms:inValueDomain         :C67154 .

:C65047.C64849  a                 mms:PermissibleValue ;
        cts:cdiscDefinition       "A measurement of the glycosylated hemoglobin in a biological specimen."^^xsd:string ;
        cts:cdiscSubmissionValue  "HBA1C"^^xsd:string ;
        cts:cdiscSynonyms         "Hemoglobin A1C"^^xsd:string ;
        cts:nciCode               "C64849"^^xsd:string ;
        cts:nciPreferredTerm      "Glycosylated Hemoglobin Measurement"^^xsd:string ;
        mms:inValueDomain         :C65047 .

:C85491.C86764  a                 mms:PermissibleValue ;
        cts:cdiscDefinition       "Any bacterial organism that can be assigned to the species Staphylococcus intermedius."^^xsd:string ;
        cts:cdiscSubmissionValue  "STAPHYLOCOCCUS INTERMEDIUS"^^xsd:string ;
        cts:nciCode               "C86764"^^xsd:string ;
        cts:nciPreferredTerm      "Staphylococcus intermedius"^^xsd:string ;
        mms:inValueDomain         :C85491 .

:C74456.C12432  a                 mms:PermissibleValue ;
        cts:cdiscDefinition       "An organ that is part of the hematopoietic and immune systems. It is composed of the white pulp and the red pulp and is surrounded by a capsule. It is located in the left hypochondriac region. Its functions include lymphocyte production, blood cell storage, and blood cell destruction. (NCI)"^^xsd:string ;
        cts:cdiscSubmissionValue  "SPLEEN"^^xsd:string ;
        cts:cdiscSynonyms         "Spleen"^^xsd:string ;
        cts:nciCode               "C12432"^^xsd:string ;
        cts:nciPreferredTerm      "Spleen"^^xsd:string ;
        mms:inValueDomain         :C74456 .

:C71620.C48544  a                 mms:PermissibleValue ;
        cts:cdiscDefinition       "A unit of volume used in pharmacy equal to 5 milliliters.(NCI)"^^xsd:string ;
        cts:cdiscSubmissionValue  "tsp"^^xsd:string ;
        cts:cdiscSynonyms         "Teaspoon Dosing Unit"^^xsd:string ;
        cts:nciCode               "C48544"^^xsd:string ;
        cts:nciPreferredTerm      "Teaspoon Dosing Unit"^^xsd:string ;
        mms:inValueDomain         :C71620 .

:C66729.C38235  a                 mms:PermissibleValue ;
        cts:cdiscDefinition       "Administration within the dilatable spaces of the corporus cavernosa of the penis. (FDA)"^^xsd:string ;
        cts:cdiscSubmissionValue  "INTRACORPORUS CAVERNOSUM"^^xsd:string ;
        cts:nciCode               "C38235"^^xsd:string ;
        cts:nciPreferredTerm      "Intracorporus Cavernosum Route of Administration"^^xsd:string ;
        mms:inValueDomain         :C66729 .

:C65047.C64469  a                 mms:PermissibleValue ;
        cts:cdiscDefinition       "A measurement of the bacteria in a biological specimen."^^xsd:string ;
        cts:cdiscSubmissionValue  "BACT"^^xsd:string ;
        cts:cdiscSynonyms         "Bacteria"^^xsd:string ;
        cts:nciCode               "C64469"^^xsd:string ;
        cts:nciPreferredTerm      "Bacterial Count"^^xsd:string ;
        mms:inValueDomain         :C65047 .

:C85491.C86384  a                 mms:PermissibleValue ;
        cts:cdiscDefinition       "Any bacterial organism that can be assigned to the species Eubacterium adactolyticum."^^xsd:string ;
        cts:cdiscSubmissionValue  "EUBACTERIUM ALACTOLYTICUM"^^xsd:string ;
        cts:nciCode               "C86384"^^xsd:string ;
        cts:nciPreferredTerm      "Eubacterium alactolyticum"^^xsd:string ;
        mms:inValueDomain         :C85491 .

:C67154.C81957  a                 mms:PermissibleValue ;
        cts:cdiscDefinition       "A measurement of the RANTES (regulated on activation, normally, T-cell expressed, and secreted) chemokine in a biological specimen."^^xsd:string ;
        cts:cdiscSubmissionValue  "Reg upon Act Normal T-cell Exprd Secrtd"^^xsd:string ;
        cts:cdiscSynonyms         "Reg upon Act Normal T-cell Exprd Secrtd; Chemokine Ligand 5"^^xsd:string ;
        cts:nciCode               "C81957"^^xsd:string ;
        cts:nciPreferredTerm      "Reg upon Act Normal T-cell Exprd Secrtd Measurement"^^xsd:string ;
        mms:inValueDomain         :C67154 .

:C85491.C86194  a                 mms:PermissibleValue ;
        cts:cdiscDefinition       "Any bacteria that is not assigned to the species level but can be assigned to the Bifidobacterium genus level."^^xsd:string ;
        cts:cdiscSubmissionValue  "BIFIDOBACTERIUM"^^xsd:string ;
        cts:nciCode               "C86194"^^xsd:string ;
        cts:nciPreferredTerm      "Bifidobacterium"^^xsd:string ;
        mms:inValueDomain         :C85491 .

:C85492.C17995  a                 mms:PermissibleValue ;
        cts:cdiscDefinition       "Light microscopy is a technique for producing visible images of structures or details which are too small to be otherwise seen by the human eye. It involves passing light transmitted through or reflected from the subject through a series of lenses to be detected directly by the eye, imaged on a photographic plate, or captured digitally."^^xsd:string ;
        cts:cdiscSubmissionValue  "LIGHT MICROSCOPY"^^xsd:string ;
        cts:nciCode               "C17995"^^xsd:string ;
        cts:nciPreferredTerm      "Light Microscopy"^^xsd:string ;
        mms:inValueDomain         :C85492 .

:C71150.C35132  a                 mms:PermissibleValue ;
        cts:cdiscDefinition       "An electrocardiographic finding of ventricular pre-excitation. The syndrome is characterized by a short PR interval and a long QRS interval with a delta wave."^^xsd:string ;
        cts:cdiscSubmissionValue  "WOLFF-PARKINSON-WHITE SYNDROME"^^xsd:string ;
        cts:cdiscSynonyms         "Wolff-Parkinson-White syndrome; WPW"^^xsd:string ;
        cts:nciCode               "C35132"^^xsd:string ;
        cts:nciPreferredTerm      "Wolff-Parkinson-White Syndrome"^^xsd:string ;
        mms:inValueDomain         :C71150 .

:C65047.C82033  a                 mms:PermissibleValue ;
        cts:cdiscDefinition       "A measurement of the procollagen-1 carboxy-terminal peptide in a biological specimen."^^xsd:string ;
        cts:cdiscSubmissionValue  "PICP"^^xsd:string ;
        cts:cdiscSynonyms         "Procollagen Type I Carboxy Term Peptide"^^xsd:string ;
        cts:nciCode               "C82033"^^xsd:string ;
        cts:nciPreferredTerm      "Procollagen Type I Carboxy Terminal Peptide Measurement"^^xsd:string ;
        mms:inValueDomain         :C65047 .

:C101863.C28554  a                mms:PermissibleValue ;
        cts:cdiscDefinition       "The absence of life or state of being dead. (NCI)"^^xsd:string ;
        cts:cdiscSubmissionValue  "Expired"^^xsd:string ;
        cts:cdiscSynonyms         "Died"^^xsd:string ;
        cts:nciCode               "C28554"^^xsd:string ;
        cts:nciPreferredTerm      "Death"^^xsd:string ;
        mms:inValueDomain         :C101863 .

:C99079.C102255  a                mms:PermissibleValue ;
        cts:cdiscDefinition       "A period in a clinical study during which subjects receive blinded therapeutic treatment."^^xsd:string ;
        cts:cdiscSubmissionValue  "BLINDED TREATMENT"^^xsd:string ;
        cts:nciCode               "C102255"^^xsd:string ;
        cts:nciPreferredTerm      "Blinded Treatment Epoch"^^xsd:string ;
        mms:inValueDomain         :C99079 .

:C74456.C33601  a                 mms:PermissibleValue ;
        cts:cdiscDefinition       "The area of the spleen through which the vessels and nerves enter or exit the organ. (NCI)"^^xsd:string ;
        cts:cdiscSubmissionValue  "SPLEEN, HILUM"^^xsd:string ;
        cts:cdiscSynonyms         "Splenic Hilum"^^xsd:string ;
        cts:nciCode               "C33601"^^xsd:string ;
        cts:nciPreferredTerm      "Splenic Hilum"^^xsd:string ;
        mms:inValueDomain         :C74456 .

:C71620.C67475  a                 mms:PermissibleValue ;
        cts:cdiscDefinition       "A unit of relative amount of substance content equivalent to the content at which one kilogram of mixture contains one thousandth of an equivalent of a component. The unit is also used as a dose calculation unit.(NCI)"^^xsd:string ;
        cts:cdiscSubmissionValue  "mEq/kg"^^xsd:string ;
        cts:cdiscSynonyms         "Milliequivalent Per Kilogram"^^xsd:string ;
        cts:nciCode               "C67475"^^xsd:string ;
        cts:nciPreferredTerm      "Milliequivalent per Kilogram"^^xsd:string ;
        mms:inValueDomain         :C71620 .

:C65047.C74836  a                 mms:PermissibleValue ;
        cts:cdiscDefinition       "A measurement of the interleukin 8 in a biological specimen."^^xsd:string ;
        cts:cdiscSubmissionValue  "INTLK8"^^xsd:string ;
        cts:cdiscSynonyms         "Interleukin 8"^^xsd:string ;
        cts:nciCode               "C74836"^^xsd:string ;
        cts:nciPreferredTerm      "Interleukin 8 Measurement"^^xsd:string ;
        mms:inValueDomain         :C65047 .

:C85839.C92408  a                 mms:PermissibleValue ;
        cts:cdiscDefinition       "The volume of distribution associated with the terminal slope following intravascular administration, calculated using the observed value of the last non-zero concentration, divided by the surface area."^^xsd:string ;
        cts:cdiscSubmissionValue  "VZOS"^^xsd:string ;
        cts:cdiscSynonyms         "Vz Obs Norm by SA"^^xsd:string ;
        cts:nciCode               "C92408"^^xsd:string ;
        cts:nciPreferredTerm      "Volume of Distribution Observed Normalized by Surface Area"^^xsd:string ;
        mms:inValueDomain         :C85839 .

:C101863.C102247  a               mms:PermissibleValue ;
        cts:cdiscDefinition       "The patient will be admitted into an alternative facility not listed."^^xsd:string ;
        cts:cdiscSubmissionValue  "Institution Not Defined"^^xsd:string ;
        cts:nciCode               "C102247"^^xsd:string ;
        cts:nciPreferredTerm      "Institution Not Defined"^^xsd:string ;
        mms:inValueDomain         :C101863 .

:C85493.C102696  a                mms:PermissibleValue ;
        cts:cdiscDefinition       "The volume of distribution associated with the terminal slope following intravascular administration, calculated using the predicted value of the last non-zero concentration, divided by the dose."^^xsd:string ;
        cts:cdiscSubmissionValue  "Vz Pred Norm by Dose"^^xsd:string ;
        cts:cdiscSynonyms         "Vz Pred Norm by Dose"^^xsd:string ;
        cts:nciCode               "C102696"^^xsd:string ;
        cts:nciPreferredTerm      "Predicted Volume of Distribution Normalized by Dose"^^xsd:string ;
        mms:inValueDomain         :C85493 .

:C65047.C74646  a                 mms:PermissibleValue ;
        cts:cdiscDefinition       "A relative measurement (ratio or percentage) of the monoblasts to leukocytes in a biological specimen."^^xsd:string ;
        cts:cdiscSubmissionValue  "MONOBLLE"^^xsd:string ;
        cts:cdiscSynonyms         "Monoblasts/Leukocytes"^^xsd:string ;
        cts:nciCode               "C74646"^^xsd:string ;
        cts:nciPreferredTerm      "Monoblast to Leukocyte Ratio Measurement"^^xsd:string ;
        mms:inValueDomain         :C65047 .

:C66726.C42679  a                 mms:PermissibleValue ;
        cts:cdiscDefinition       "A liquid preparation, intended for the irrigative cleansing of the vagina, that is prepared from powders, liquid solutions, or liquid concentrates and contains one or more chemical substances dissolved in a suitable solvent or mutually miscible solvents. (NCI)"^^xsd:string ;
        cts:cdiscSubmissionValue  "DOUCHE"^^xsd:string ;
        cts:nciCode               "C42679"^^xsd:string ;
        cts:nciPreferredTerm      "Douche Dosage Form"^^xsd:string ;
        mms:inValueDomain         :C66726 .

:C74456.C12794  a                 mms:PermissibleValue ;
        cts:cdiscDefinition       "The vein that drains the axillary vein and joins the internal jugular vein to form the brachiocephalic vein. It runs parallel to the subclavian artery."^^xsd:string ;
        cts:cdiscSubmissionValue  "SUBCLAVIAN VEIN"^^xsd:string ;
        cts:nciCode               "C12794"^^xsd:string ;
        cts:nciPreferredTerm      "Subclavian Vein"^^xsd:string ;
        mms:inValueDomain         :C74456 .

:C74456.C33031  a                 mms:PermissibleValue ;
        cts:cdiscDefinition       "The concave side of the lymph node. (NCI)"^^xsd:string ;
        cts:cdiscSubmissionValue  "LYMPH NODE HILUM"^^xsd:string ;
        cts:cdiscSynonyms         "Lymph Node Hilum"^^xsd:string ;
        cts:nciCode               "C33031"^^xsd:string ;
        cts:nciPreferredTerm      "Lymph Node Hilum"^^xsd:string ;
        mms:inValueDomain         :C74456 .

:C85493.C105458  a                mms:PermissibleValue ;
        cts:cdiscDefinition       "The clearance of a substance from the blood by the kidneys divided by the body mass index."^^xsd:string ;
        cts:cdiscSubmissionValue  "Renal CL Norm by BMI"^^xsd:string ;
        cts:cdiscSynonyms         "Renal CL Norm by BMI"^^xsd:string ;
        cts:nciCode               "C105458"^^xsd:string ;
        cts:nciPreferredTerm      "Renal Clearance Normalized by BMI"^^xsd:string ;
        mms:inValueDomain         :C85493 .

:C78734.C77613  a                 mms:PermissibleValue ;
        cts:cdiscDefinition       "The fluid that is abnormally collected in the pleural cavity. (NCI)"^^xsd:string ;
        cts:cdiscSubmissionValue  "PLEURAL FLUID"^^xsd:string ;
        cts:nciCode               "C77613"^^xsd:string ;
        cts:nciPreferredTerm      "Pleural Fluid"^^xsd:string ;
        mms:inValueDomain         :C78734 .

:C71620.C73727  a                 mms:PermissibleValue ;
        cts:cdiscDefinition       "A dose calculation unit expressed in microgram(s) per square meter per period of time equal to sixty minutes. (NCI)"^^xsd:string ;
        cts:cdiscSubmissionValue  "ug/m2/h"^^xsd:string ;
        cts:cdiscSynonyms         "Microgram per Square Meter per Hour"^^xsd:string ;
        cts:nciCode               "C73727"^^xsd:string ;
        cts:nciPreferredTerm      "ug/m2/h"^^xsd:string ;
        mms:inValueDomain         :C71620 .

:C65047.C84823  a                 mms:PermissibleValue ;
        cts:cdiscDefinition       "A measurement of the neutrophilic myelocytes in a biological specimen."^^xsd:string ;
        cts:cdiscSubmissionValue  "NEUTMY"^^xsd:string ;
        cts:cdiscSynonyms         "Neutrophilic Myelocytes"^^xsd:string ;
        cts:nciCode               "C84823"^^xsd:string ;
        cts:nciPreferredTerm      "Neutrophilic Myelocyte Count"^^xsd:string ;
        mms:inValueDomain         :C65047 .

:C100130.C62649  a                mms:PermissibleValue ;
        cts:cdiscDefinition       "A person's partner in marriage. (NCI)"^^xsd:string ;
        cts:cdiscSubmissionValue  "SPOUSE"^^xsd:string ;
        cts:cdiscSynonyms         "Spouse"^^xsd:string ;
        cts:nciCode               "C62649"^^xsd:string ;
        cts:nciPreferredTerm      "Spouse"^^xsd:string ;
        mms:inValueDomain         :C100130 .

:C67154.C103368  a                mms:PermissibleValue ;
        cts:cdiscDefinition       "A count of the CD20 expressing cells per unit of a biological specimen."^^xsd:string ;
        cts:cdiscSubmissionValue  "CD20"^^xsd:string ;
        cts:cdiscSynonyms         "CD20"^^xsd:string ;
        cts:nciCode               "C103368"^^xsd:string ;
        cts:nciPreferredTerm      "CD20 Expressing Cell Measurement"^^xsd:string ;
        mms:inValueDomain         :C67154 .

:C71620.C49670  a                 mms:PermissibleValue ;
        cts:cdiscDefinition       "A unit of pressure equal to 0.001316 atmosphere and equal to the pressure indicated by one millimeter rise of mercury in a barometer at the Earth's surface. (NCI)"^^xsd:string ;
        cts:cdiscSubmissionValue  "mmHg"^^xsd:string ;
        cts:cdiscSynonyms         "Millimeter of Mercury; torr; Torr"^^xsd:string ;
        cts:nciCode               "C49670"^^xsd:string ;
        cts:nciPreferredTerm      "Millimeter of Mercury"^^xsd:string ;
        mms:inValueDomain         :C71620 .

:C67154.C102274  a                mms:PermissibleValue ;
        cts:cdiscDefinition       "A relative measurement (ratio or percentage) of the hematocrit corrected reticulocytes to erythrocytes in a biological specimen."^^xsd:string ;
        cts:cdiscSubmissionValue  "HCT Corrected Reticulocytes/Erythrocytes"^^xsd:string ;
        cts:cdiscSynonyms         "HCT Corrected Reticulocytes/Erythrocytes"^^xsd:string ;
        cts:nciCode               "C102274"^^xsd:string ;
        cts:nciPreferredTerm      "Hematocrit Corrected Reticulocytes to Erythrocytes Ratio Measurement"^^xsd:string ;
        mms:inValueDomain         :C67154 .

:C85839.C96695  a                 mms:PermissibleValue ;
        cts:cdiscDefinition       "The area under the curve (AUC) extrapolated to infinity, calculated using the observed value of the last non-zero concentration, divided by the dose."^^xsd:string ;
        cts:cdiscSubmissionValue  "AUCIFOD"^^xsd:string ;
        cts:cdiscSynonyms         "AUC Infinity Obs Norm by Dose"^^xsd:string ;
        cts:nciCode               "C96695"^^xsd:string ;
        cts:nciPreferredTerm      "AUC Infinity Observed Normalized by Dose"^^xsd:string ;
        mms:inValueDomain         :C85839 .

:C67154.C74764  a                 mms:PermissibleValue ;
        cts:cdiscDefinition       "A measurement of the cellular (white blood cell, red blood cell, epithelial and bacterial) casts present in a biological specimen."^^xsd:string ;
        cts:cdiscSubmissionValue  "Cellular Casts"^^xsd:string ;
        cts:cdiscSynonyms         "Cellular Casts"^^xsd:string ;
        cts:nciCode               "C74764"^^xsd:string ;
        cts:nciPreferredTerm      "Cellular Cast Measurement"^^xsd:string ;
        mms:inValueDomain         :C67154 .

:C65047.C92293  a                 mms:PermissibleValue ;
        cts:cdiscDefinition       "A measurement of the apolipoprotein E4 in a biological specimen."^^xsd:string ;
        cts:cdiscSubmissionValue  "APOE4"^^xsd:string ;
        cts:cdiscSynonyms         "Apolipoprotein E4"^^xsd:string ;
        cts:nciCode               "C92293"^^xsd:string ;
        cts:nciPreferredTerm      "Apolipoprotein E4 Measurement"^^xsd:string ;
        mms:inValueDomain         :C65047 .

:C66741.C25347  a                 mms:PermissibleValue ;
        cts:cdiscDefinition       "The vertical measurement or distance from the base to the top of an object; the vertical dimension of extension. (NCI)"^^xsd:string ;
        cts:cdiscSubmissionValue  "HEIGHT"^^xsd:string ;
        cts:cdiscSynonyms         "Height"^^xsd:string ;
        cts:nciCode               "C25347"^^xsd:string ;
        cts:nciPreferredTerm      "Height"^^xsd:string ;
        mms:inValueDomain         :C66741 .

:C85492.C85697  a                 mms:PermissibleValue ;
        cts:cdiscDefinition       "A method to determine the minimum inhibitory concentration (MIC) of antibiotics in which growth media is pipetted into a test tube. Each tube contains a known concentration of drug and is inoculated with a known quantity of bacteria. The tubes are incubated for a specified period of time and each is assessed for bacterial cell growth. The drug concentration in the first tube showing no growth is known as the MIC for that antibiotic."^^xsd:string ;
        cts:cdiscSubmissionValue  "MACRO BROTH DILUTION"^^xsd:string ;
        cts:nciCode               "C85697"^^xsd:string ;
        cts:nciPreferredTerm      "Macro Broth Dilution Method"^^xsd:string ;
        mms:inValueDomain         :C85492 .

:C66741.C49677  a                 mms:PermissibleValue ;
        cts:cdiscDefinition       "The number of heartbeats per unit of time, usually expressed as beats per minute. (NCI)"^^xsd:string ;
        cts:cdiscSubmissionValue  "HR"^^xsd:string ;
        cts:cdiscSynonyms         "Heart Rate"^^xsd:string ;
        cts:nciCode               "C49677"^^xsd:string ;
        cts:nciPreferredTerm      "Heart Rate"^^xsd:string ;
        mms:inValueDomain         :C66741 .

:C74456.C91405  a                 mms:PermissibleValue ;
        cts:cdiscDefinition       "A muscle located away from the trunk of the body. (NCI)"^^xsd:string ;
        cts:cdiscSubmissionValue  "MUSCLE, DISTAL"^^xsd:string ;
        cts:cdiscSynonyms         "Distal Muscle"^^xsd:string ;
        cts:nciCode               "C91405"^^xsd:string ;
        cts:nciPreferredTerm      "Distal Muscle"^^xsd:string ;
        mms:inValueDomain         :C74456 .

:C66741.C25157  a                 mms:PermissibleValue ;
        cts:cdiscDefinition       "A measure of the 2-dimensional extent of the body surface (i.e., the skin). Body surface area (BSA) can be calculated by mathematical formula or from a chart that relates height to weight. BSA is often an important factor in dosing. (NCI)"^^xsd:string ;
        cts:cdiscSubmissionValue  "BSA"^^xsd:string ;
        cts:cdiscSynonyms         "Body Surface Area"^^xsd:string ;
        cts:nciCode               "C25157"^^xsd:string ;
        cts:nciPreferredTerm      "Body Surface Area"^^xsd:string ;
        mms:inValueDomain         :C66741 .

:C71152.C62161  a                 mms:PermissibleValue ;
        cts:cdiscDefinition       "The average (mean) depression (negative deflection from baseline, usually measured in mm) of the ST segment, obtained from a set of measurements of the depression of the ST segment. (NCI)"^^xsd:string ;
        cts:cdiscSubmissionValue  "Summary (Mean) ST Depression"^^xsd:string ;
        cts:cdiscSynonyms         "Summary (Mean) ST Depression"^^xsd:string ;
        cts:nciCode               "C62161"^^xsd:string ;
        cts:nciPreferredTerm      "EKG Mean ST Segment Depression"^^xsd:string ;
        mms:inValueDomain         :C71152 .

:C85491.C86727  a                 mms:PermissibleValue ;
        cts:cdiscDefinition       "Any bacteria that is not assigned to the species level but can be assigned to the Rothia genus level."^^xsd:string ;
        cts:cdiscSubmissionValue  "ROTHIA"^^xsd:string ;
        cts:nciCode               "C86727"^^xsd:string ;
        cts:nciPreferredTerm      "Rothia"^^xsd:string ;
        mms:inValueDomain         :C85491 .

:C71620.C48507  a                 mms:PermissibleValue ;
        cts:cdiscDefinition       "A unit of radioactivity equal to one millionth of a Curie or 37 kilobecquerels, and corresponding to a radioactivity of 37 000 atomic disintegrations per second.(NCI)"^^xsd:string ;
        cts:cdiscSubmissionValue  "uCi"^^xsd:string ;
        cts:cdiscSynonyms         "Microcurie; mcCi"^^xsd:string ;
        cts:nciCode               "C48507"^^xsd:string ;
        cts:nciPreferredTerm      "Microcurie"^^xsd:string ;
        mms:inValueDomain         :C71620 .

:C103330.C74565  a                mms:PermissibleValue ;
        cts:cdiscDefinition       "A code qualifying the employment in various ways, such as, full-time vs. part time, etc."^^xsd:string ;
        cts:cdiscSubmissionValue  "Employee Job Class"^^xsd:string ;
        cts:cdiscSynonyms         "Employee Job Class"^^xsd:string ;
        cts:nciCode               "C74565"^^xsd:string ;
        cts:nciPreferredTerm      "Employee Job Class"^^xsd:string ;
        mms:inValueDomain         :C103330 .

:C88025.C4147  a                  mms:PermissibleValue ;
        cts:cdiscDefinition       "A malignant epithelial neoplasm of the anterior pituitary gland in which the neoplastic cells stain positive with acidic dyes."^^xsd:string ;
        cts:cdiscSubmissionValue  "CARCINOMA, ACIDOPHIL, MALIGNANT"^^xsd:string ;
        cts:cdiscSynonyms         "EOSINOPHIL CARCINOMA; ACIDOPHIL ADENOCARCINOMA; ACIDOPHIL CARCINOMA; EOSINOPHIL ADENOMCARCINOMA; EOSINOPHIL ADENOMCARCINOMA ADENOCARCINOMA"^^xsd:string ;
        cts:nciCode               "C4147"^^xsd:string ;
        cts:nciPreferredTerm      "Pituitary Gland Acidophil Carcinoma"^^xsd:string ;
        mms:inValueDomain         :C88025 .

:C85492.C16585  a                 mms:PermissibleValue ;
        cts:cdiscDefinition       "A technique for counting, examining or sorting microscopic particles suspended in a stream of fluid."^^xsd:string ;
        cts:cdiscSubmissionValue  "FLOW CYTOMETRY"^^xsd:string ;
        cts:nciCode               "C16585"^^xsd:string ;
        cts:nciPreferredTerm      "Flow Cytometry"^^xsd:string ;
        mms:inValueDomain         :C85492 .

:C85491.C86537  a                 mms:PermissibleValue ;
        cts:cdiscDefinition       "Any bacterial organism that can be assigned to the species Mycobacterium flavescens."^^xsd:string ;
        cts:cdiscSubmissionValue  "MYCOBACTERIUM FLAVESCENS"^^xsd:string ;
        cts:nciCode               "C86537"^^xsd:string ;
        cts:nciPreferredTerm      "Mycobacterium flavescens"^^xsd:string ;
        mms:inValueDomain         :C85491 .

:C85494.C85666  a                 mms:PermissibleValue ;
        cts:cdiscDefinition       "Liters per microgram per minute."^^xsd:string ;
        cts:cdiscSubmissionValue  "L/ug/min"^^xsd:string ;
        cts:cdiscSynonyms         "L/mcg/min; L/min/ug; L/min/mcg; mL/min/ng; mL/ng/min"^^xsd:string ;
        cts:nciCode               "C85666"^^xsd:string ;
        cts:nciPreferredTerm      "Liter per Microgram per Minute"^^xsd:string ;
        mms:inValueDomain         :C85494 .

:C85491.C86347  a                 mms:PermissibleValue ;
        cts:cdiscDefinition       "Any bacterial organism that can be assigned to the species Edwardsiella tarda."^^xsd:string ;
        cts:cdiscSubmissionValue  "EDWARDSIELLA TARDA"^^xsd:string ;
        cts:nciCode               "C86347"^^xsd:string ;
        cts:nciPreferredTerm      "Edwardsiella tarda"^^xsd:string ;
        mms:inValueDomain         :C85491 .

:C67154.C80167  a                 mms:PermissibleValue ;
        cts:cdiscDefinition       "A measurement of the alpha-1 antitrypsin in a biological specimen."^^xsd:string ;
        cts:cdiscSubmissionValue  "Alpha-1 Antitrypsin"^^xsd:string ;
        cts:cdiscSynonyms         "Alpha-1 Antitrypsin; Serum Trypsin Inhibitor"^^xsd:string ;
        cts:nciCode               "C80167"^^xsd:string ;
        cts:nciPreferredTerm      "Alpha-1 Antitrypsin Measurement"^^xsd:string ;
        mms:inValueDomain         :C67154 .

:C66786.C17129  a                 mms:PermissibleValue ;
        cts:cdiscDefinition       "A country in Eastern Africa, comprised of a group of islands in the Indian Ocean, northeast of Madagascar. (NCI)"^^xsd:string ;
        cts:cdiscSubmissionValue  "SYC"^^xsd:string ;
        cts:cdiscSynonyms         "SEYCHELLES"^^xsd:string ;
        cts:nciCode               "C17129"^^xsd:string ;
        cts:nciPreferredTerm      "Seychelles"^^xsd:string ;
        mms:inValueDomain         :C66786 .

:C66741.C100945  a                mms:PermissibleValue ;
        cts:cdiscDefinition       "The change in systolic to diastolic pressure which produces a pulse."^^xsd:string ;
        cts:cdiscSubmissionValue  "PULSEPR"^^xsd:string ;
        cts:cdiscSynonyms         "Pulse Pressure"^^xsd:string ;
        cts:nciCode               "C100945"^^xsd:string ;
        cts:nciPreferredTerm      "Pulse Pressure"^^xsd:string ;
        mms:inValueDomain         :C66741 .

:C85491.C86157  a                 mms:PermissibleValue ;
        cts:cdiscDefinition       "Any bacterial organism that can be assigned to the species Atopobium parvulum."^^xsd:string ;
        cts:cdiscSubmissionValue  "ATOPOBIUM PARVULUM"^^xsd:string ;
        cts:cdiscSynonyms         "STREPTOCOCCUS PARVULUS"^^xsd:string ;
        cts:nciCode               "C86157"^^xsd:string ;
        cts:nciPreferredTerm      "Atopobium parvulum"^^xsd:string ;
        mms:inValueDomain         :C85491 .

:C85492.C17958  a                 mms:PermissibleValue ;
