@prefix prov:  <http://www.w3.org/ns/prov#> .
@prefix mms:   <http://rdf.cdisc.org/mms#> .
@prefix crnd-dimension: <http://www.example.org/dc/dimension#> .
@prefix crnd-measure: <http://www.example.org/dc/measure#> .
@prefix code:  <http://www.example.org/dc/code/> .
@prefix qb:    <http://purl.org/linked-data/cube#> .
@prefix rdfs:  <http://www.w3.org/2000/01/rdf-schema#> .
@prefix dccs:  <http://www.example.org/dc/ae/dccs/> .
@prefix dcat:  <http://www.w3.org/ns/dcat#> .
@prefix pav:   <http://purl.org/pav> .
@prefix dct:   <http://purl.org/dc/terms/> .
@prefix xsd:   <http://www.w3.org/2001/XMLSchema#> .
@prefix owl:   <http://www.w3.org/2002/07/owl#> .
@prefix rdf:   <http://www.w3.org/1999/02/22-rdf-syntax-ns#> .
@prefix cts:   <http://rdf.cdisc.org/ct/schema#> .
@prefix skos:  <http://www.w3.org/2004/02/skos/core#> .
@prefix rrdfqbcrnd0: <http://www.example.org/rrdfqbcrnd0/> .
@prefix ds:    <http://www.example.org/dc/ae/ds/> .
@prefix crnd-attribute: <http://www.example.org/dc/attribute#> .

ds:obs378  a                        qb:Observation ;
        rdfs:label                  "378" ;
        qb:dataSet                  ds:dataset-AE ;
        crnd-attribute:denominator  "_NULL_" ;
        crnd-attribute:unit         "_NULL_"^^xsd:string ;
        crnd-dimension:aedecod      code:aedecod-ATRIAL_FIBRILLATION ;
        crnd-dimension:aesoc        code:aesoc-CARDIAC_DISORDERS ;
        crnd-dimension:factor       code:factor-quantity ;
        crnd-dimension:procedure    code:procedure-count ;
        crnd-dimension:saffl        code:saffl-Y ;
        crnd-dimension:trta         code:trta-Xanomeline_Low_Dose ;
        crnd-measure:measure        "1"^^xsd:int .

code:aedecod-SINUS_ARRHYTHMIA
        a                  code:Aedecod , skos:Concept ;
        rdfs:comment       "Coded values from data source. No reconciliation against another source"@en ;
        skos:inScheme      code:aedecod ;
        skos:prefLabel     "SINUS ARRHYTHMIA" ;
        skos:topConceptOf  code:aedecod .

code:aesoc-_NONMISS_  a    code:Aesoc , skos:Concept ;
        rdfs:comment       "NON-CDISC: Represents the SUM of all non-missing codelist categories. Does not include category U (unknown) or missing values."@en ;
        skos:inScheme      code:aesoc ;
        skos:prefLabel     "_NONMISS_" ;
        skos:topConceptOf  code:aesoc .

code:aedecod-BLOOD_CHOLESTEROL_INCREASED
        a                  code:Aedecod , skos:Concept ;
        rdfs:comment       "Coded values from data source. No reconciliation against another source"@en ;
        skos:inScheme      code:aedecod ;
        skos:prefLabel     "BLOOD CHOLESTEROL INCREASED" ;
        skos:topConceptOf  code:aedecod .

ds:obs125  a                        qb:Observation ;
        rdfs:label                  "125" ;
        qb:dataSet                  ds:dataset-AE ;
        crnd-attribute:denominator  "_NULL_" ;
        crnd-attribute:unit         "_NULL_"^^xsd:string ;
        crnd-dimension:aedecod      code:aedecod-_ALL_ ;
        crnd-dimension:aesoc        code:aesoc-RESPIRATORY__THORACIC_AND_MEDIASTINAL_DISORDERS ;
        crnd-dimension:factor       code:factor-USUBJID ;
        crnd-dimension:procedure    code:procedure-countdistinct ;
        crnd-dimension:saffl        code:saffl-Y ;
        crnd-dimension:trta         code:trta-Xanomeline_Low_Dose ;
        crnd-measure:measure        "10"^^xsd:int .

code:aedecod-ATRIAL_FLUTTER
        a                  code:Aedecod , skos:Concept ;
        rdfs:comment       "Coded values from data source. No reconciliation against another source"@en ;
        skos:inScheme      code:aedecod ;
        skos:prefLabel     "ATRIAL FLUTTER" ;
        skos:topConceptOf  code:aedecod .

ds:obs844  a                        qb:Observation ;
        rdfs:label                  "844" ;
        qb:dataSet                  ds:dataset-AE ;
        crnd-attribute:denominator  "_NULL_" ;
        crnd-attribute:unit         "_NULL_"^^xsd:string ;
        crnd-dimension:aedecod      code:aedecod-CONFUSIONAL_STATE ;
        crnd-dimension:aesoc        code:aesoc-PSYCHIATRIC_DISORDERS ;
        crnd-dimension:factor       code:factor-USUBJID ;
        crnd-dimension:procedure    code:procedure-countdistinct ;
        crnd-dimension:saffl        code:saffl-Y ;
        crnd-dimension:trta         code:trta-Xanomeline_Low_Dose ;
        crnd-measure:measure        "3"^^xsd:int .

ds:obs599  a                        qb:Observation ;
        rdfs:label                  "599" ;
        qb:dataSet                  ds:dataset-AE ;
        crnd-attribute:denominator  "_NULL_" ;
        crnd-attribute:unit         "_NULL_"^^xsd:string ;
        crnd-dimension:aedecod      code:aedecod-PELVIC_PAIN ;
        crnd-dimension:aesoc        code:aesoc-REPRODUCTIVE_SYSTEM_AND_BREAST_DISORDERS ;
        crnd-dimension:factor       code:factor-USUBJID ;
        crnd-dimension:procedure    code:procedure-countdistinct ;
        crnd-dimension:saffl        code:saffl-Y ;
        crnd-dimension:trta         code:trta-Placebo ;
        crnd-measure:measure        "1"^^xsd:int .

code:aedecod-APPLICATION_SITE_IRRITATION
        a                  code:Aedecod , skos:Concept ;
        rdfs:comment       "Coded values from data source. No reconciliation against another source"@en ;
        skos:inScheme      code:aedecod ;
        skos:prefLabel     "APPLICATION SITE IRRITATION" ;
        skos:topConceptOf  code:aedecod .

ds:obs346  a                        qb:Observation ;
        rdfs:label                  "346" ;
        qb:dataSet                  ds:dataset-AE ;
        crnd-attribute:denominator  "_NULL_" ;
        crnd-attribute:unit         "_NULL_"^^xsd:string ;
        crnd-dimension:aedecod      code:aedecod-CALCULUS_URETHRAL ;
        crnd-dimension:aesoc        code:aesoc-RENAL_AND_URINARY_DISORDERS ;
        crnd-dimension:factor       code:factor-quantity ;
        crnd-dimension:procedure    code:procedure-count ;
        crnd-dimension:saffl        code:saffl-Y ;
        crnd-dimension:trta         code:trta-Xanomeline_High_Dose ;
        crnd-measure:measure        "1"^^xsd:int .

ds:obs171  a                        qb:Observation ;
        rdfs:label                  "171" ;
        qb:dataSet                  ds:dataset-AE ;
        crnd-attribute:denominator  "_NULL_" ;
        crnd-attribute:unit         "_NULL_"^^xsd:string ;
        crnd-dimension:aedecod      code:aedecod-HYPERBILIRUBINAEMIA ;
        crnd-dimension:aesoc        code:aesoc-HEPATOBILIARY_DISORDERS ;
        crnd-dimension:factor       code:factor-quantity ;
        crnd-dimension:procedure    code:procedure-count ;
        crnd-dimension:saffl        code:saffl-Y ;
        crnd-dimension:trta         code:trta-Placebo ;
        crnd-measure:measure        "1"^^xsd:int .

code:aedecod-HYPOTENSION
        a                  code:Aedecod , skos:Concept ;
        rdfs:comment       "Coded values from data source. No reconciliation against another source"@en ;
        skos:inScheme      code:aedecod ;
        skos:prefLabel     "HYPOTENSION" ;
        skos:topConceptOf  code:aedecod .

code:aedecod-UPPER_RESPIRATORY_TRACT_INFECTION
        a                  code:Aedecod , skos:Concept ;
        rdfs:comment       "Coded values from data source. No reconciliation against another source"@en ;
        skos:inScheme      code:aedecod ;
        skos:prefLabel     "UPPER RESPIRATORY TRACT INFECTION" ;
        skos:topConceptOf  code:aedecod .

code:aedecod-_ALL_  a      code:Aedecod , skos:Concept ;
        rdfs:comment       "NON-CDISC: Represents all codelist categories."@en , "Coded values from data source. No reconciliation against another source"@en ;
        skos:inScheme      code:aedecod ;
        skos:prefLabel     "_ALL_" ;
        skos:topConceptOf  code:aedecod .

code:aedecod-HORDEOLUM
        a                  code:Aedecod , skos:Concept ;
        rdfs:comment       "Coded values from data source. No reconciliation against another source"@en ;
        skos:inScheme      code:aedecod ;
        skos:prefLabel     "HORDEOLUM" ;
        skos:topConceptOf  code:aedecod .

code:aedecod-CATARACT_OPERATION
        a                  code:Aedecod , skos:Concept ;
        rdfs:comment       "Coded values from data source. No reconciliation against another source"@en ;
        skos:inScheme      code:aedecod ;
        skos:prefLabel     "CATARACT OPERATION" ;
        skos:topConceptOf  code:aedecod .

ds:obs812  a                        qb:Observation ;
        rdfs:label                  "812" ;
        qb:dataSet                  ds:dataset-AE ;
        crnd-attribute:denominator  "_NULL_" ;
        crnd-attribute:unit         "_NULL_"^^xsd:string ;
        crnd-dimension:aedecod      code:aedecod-WOUND ;
        crnd-dimension:aesoc        code:aesoc-INJURY__POISONING_AND_PROCEDURAL_COMPLICATIONS ;
        crnd-dimension:factor       code:factor-USUBJID ;
        crnd-dimension:procedure    code:procedure-countdistinct ;
        crnd-dimension:saffl        code:saffl-Y ;
        crnd-dimension:trta         code:trta-Xanomeline_Low_Dose ;
        crnd-measure:measure        "1"^^xsd:int .

ds:obs392  a                        qb:Observation ;
        rdfs:label                  "392" ;
        qb:dataSet                  ds:dataset-AE ;
        crnd-attribute:denominator  "_NULL_" ;
        crnd-attribute:unit         "_NULL_"^^xsd:string ;
        crnd-dimension:aedecod      code:aedecod-VERTIGO ;
        crnd-dimension:aesoc        code:aesoc-EAR_AND_LABYRINTH_DISORDERS ;
        crnd-dimension:factor       code:factor-quantity ;
        crnd-dimension:procedure    code:procedure-count ;
        crnd-dimension:saffl        code:saffl-Y ;
        crnd-dimension:trta         code:trta-Xanomeline_Low_Dose ;
        crnd-measure:measure        "1"^^xsd:int .

ds:obs4  a                          qb:Observation ;
        rdfs:label                  "4" ;
        qb:dataSet                  ds:dataset-AE ;
        crnd-attribute:denominator  "_NULL_" ;
        crnd-attribute:unit         "_NULL_"^^xsd:string ;
        crnd-dimension:aedecod      code:aedecod-_ALL_ ;
        crnd-dimension:aesoc        code:aesoc-_ALL_ ;
        crnd-dimension:factor       code:factor-USUBJID ;
        crnd-dimension:procedure    code:procedure-countdistinct ;
        crnd-dimension:saffl        code:saffl-Y ;
        crnd-dimension:trta         code:trta-Placebo ;
        crnd-measure:measure        "69"^^xsd:int .

ds:obs567  a                        qb:Observation ;
        rdfs:label                  "567" ;
        qb:dataSet                  ds:dataset-AE ;
        crnd-attribute:denominator  "_NULL_" ;
        crnd-attribute:unit         "_NULL_"^^xsd:string ;
        crnd-dimension:aedecod      code:aedecod-ELECTROCARDIOGRAM_T_WAVE_INVERSION ;
        crnd-dimension:aesoc        code:aesoc-INVESTIGATIONS ;
        crnd-dimension:factor       code:factor-USUBJID ;
        crnd-dimension:procedure    code:procedure-countdistinct ;
        crnd-dimension:saffl        code:saffl-Y ;
        crnd-dimension:trta         code:trta-Placebo ;
        crnd-measure:measure        "2"^^xsd:int .

ds:obs314  a                        qb:Observation ;
        rdfs:label                  "314" ;
        qb:dataSet                  ds:dataset-AE ;
        crnd-attribute:denominator  "_NULL_" ;
        crnd-attribute:unit         "_NULL_"^^xsd:string ;
        crnd-dimension:aedecod      code:aedecod-ARTHRALGIA ;
        crnd-dimension:aesoc        code:aesoc-MUSCULOSKELETAL_AND_CONNECTIVE_TISSUE_DISORDERS ;
        crnd-dimension:factor       code:factor-quantity ;
        crnd-dimension:procedure    code:procedure-count ;
        crnd-dimension:saffl        code:saffl-Y ;
        crnd-dimension:trta         code:trta-Xanomeline_High_Dose ;
        crnd-measure:measure        "1"^^xsd:int .

code:aedecod-CELLULITIS
        a                  code:Aedecod , skos:Concept ;
        rdfs:comment       "Coded values from data source. No reconciliation against another source"@en ;
        skos:inScheme      code:aedecod ;
        skos:prefLabel     "CELLULITIS" ;
        skos:topConceptOf  code:aedecod .

ds:obs97  a                         qb:Observation ;
        rdfs:label                  "97" ;
        qb:dataSet                  ds:dataset-AE ;
        crnd-attribute:denominator  "_NULL_" ;
        crnd-attribute:unit         "_NULL_"^^xsd:string ;
        crnd-dimension:aedecod      code:aedecod-_ALL_ ;
        crnd-dimension:aesoc        code:aesoc-METABOLISM_AND_NUTRITION_DISORDERS ;
        crnd-dimension:factor       code:factor-USUBJID ;
        crnd-dimension:procedure    code:procedure-countdistinct ;
        crnd-dimension:saffl        code:saffl-Y ;
        crnd-dimension:trta         code:trta-Xanomeline_High_Dose ;
        crnd-measure:measure        "3"^^xsd:int .

ds:obs19  a                         qb:Observation ;
        rdfs:label                  "19" ;
        qb:dataSet                  ds:dataset-AE ;
        crnd-attribute:denominator  "_NULL_" ;
        crnd-attribute:unit         "_NULL_"^^xsd:string ;
        crnd-dimension:aedecod      code:aedecod-_ALL_ ;
        crnd-dimension:aesoc        code:aesoc-PSYCHIATRIC_DISORDERS ;
        crnd-dimension:factor       code:factor-quantity ;
        crnd-dimension:procedure    code:procedure-count ;
        crnd-dimension:saffl        code:saffl-Y ;
        crnd-dimension:trta         code:trta-Placebo ;
        crnd-measure:measure        "14"^^xsd:int .

ds:obs360  a                        qb:Observation ;
        rdfs:label                  "360" ;
        qb:dataSet                  ds:dataset-AE ;
        crnd-attribute:denominator  "_NULL_" ;
        crnd-attribute:unit         "_NULL_"^^xsd:string ;
        crnd-dimension:aedecod      code:aedecod-ACTINIC_KERATOSIS ;
        crnd-dimension:aesoc        code:aesoc-SKIN_AND_SUBCUTANEOUS_TISSUE_DISORDERS ;
        crnd-dimension:factor       code:factor-quantity ;
        crnd-dimension:procedure    code:procedure-count ;
        crnd-dimension:saffl        code:saffl-Y ;
        crnd-dimension:trta         code:trta-Xanomeline_High_Dose ;
        crnd-measure:measure        "1"^^xsd:int .

ds:obs788  a                        qb:Observation ;
        rdfs:label                  "788" ;
        qb:dataSet                  ds:dataset-AE ;
        crnd-attribute:denominator  "_NULL_" ;
        crnd-attribute:unit         "_NULL_"^^xsd:string ;
        crnd-dimension:aedecod      code:aedecod-FATIGUE ;
        crnd-dimension:aesoc        code:aesoc-GENERAL_DISORDERS_AND_ADMINISTRATION_SITE_CONDITIONS ;
        crnd-dimension:factor       code:factor-USUBJID ;
        crnd-dimension:procedure    code:procedure-countdistinct ;
        crnd-dimension:saffl        code:saffl-Y ;
        crnd-dimension:trta         code:trta-Xanomeline_Low_Dose ;
        crnd-measure:measure        "5"^^xsd:int .

ds:obs535  a                        qb:Observation ;
        rdfs:label                  "535" ;
        qb:dataSet                  ds:dataset-AE ;
        crnd-attribute:denominator  "_NULL_" ;
        crnd-attribute:unit         "_NULL_"^^xsd:string ;
        crnd-dimension:aedecod      code:aedecod-APPLICATION_SITE_IRRITATION ;
        crnd-dimension:aesoc        code:aesoc-GENERAL_DISORDERS_AND_ADMINISTRATION_SITE_CONDITIONS ;
        crnd-dimension:factor       code:factor-USUBJID ;
        crnd-dimension:procedure    code:procedure-countdistinct ;
        crnd-dimension:saffl        code:saffl-Y ;
        crnd-dimension:trta         code:trta-Placebo ;
        crnd-measure:measure        "3"^^xsd:int .

ds:obs65  a                         qb:Observation ;
        rdfs:label                  "65" ;
        qb:dataSet                  ds:dataset-AE ;
        crnd-attribute:denominator  "_NULL_" ;
        crnd-attribute:unit         "_NULL_"^^xsd:string ;
        crnd-dimension:aedecod      code:aedecod-_ALL_ ;
        crnd-dimension:aesoc        code:aesoc-SKIN_AND_SUBCUTANEOUS_TISSUE_DISORDERS ;
        crnd-dimension:factor       code:factor-quantity ;
        crnd-dimension:procedure    code:procedure-count ;
        crnd-dimension:saffl        code:saffl-Y ;
        crnd-dimension:trta         code:trta-Xanomeline_Low_Dose ;
        crnd-measure:measure        "118"^^xsd:int .

ds:obs581  a                        qb:Observation ;
        rdfs:label                  "581" ;
        qb:dataSet                  ds:dataset-AE ;
        crnd-attribute:denominator  "_NULL_" ;
        crnd-attribute:unit         "_NULL_"^^xsd:string ;
        crnd-dimension:aedecod      code:aedecod-DIZZINESS ;
        crnd-dimension:aesoc        code:aesoc-NERVOUS_SYSTEM_DISORDERS ;
        crnd-dimension:factor       code:factor-USUBJID ;
        crnd-dimension:procedure    code:procedure-countdistinct ;
        crnd-dimension:saffl        code:saffl-Y ;
        crnd-dimension:trta         code:trta-Placebo ;
        crnd-measure:measure        "2"^^xsd:int .

ds:obs756  a                        qb:Observation ;
        rdfs:label                  "756" ;
        qb:dataSet                  ds:dataset-AE ;
        crnd-attribute:denominator  "_NULL_" ;
        crnd-attribute:unit         "_NULL_"^^xsd:string ;
        crnd-dimension:aedecod      code:aedecod-PALPITATIONS ;
        crnd-dimension:aesoc        code:aesoc-CARDIAC_DISORDERS ;
        crnd-dimension:factor       code:factor-USUBJID ;
        crnd-dimension:procedure    code:procedure-countdistinct ;
        crnd-dimension:saffl        code:saffl-Y ;
        crnd-dimension:trta         code:trta-Xanomeline_Low_Dose ;
        crnd-measure:measure        "2"^^xsd:int .

crnd-dimension:factor
        a            rdf:Property , qb:DimensionProperty ;
        rdfs:label   "Type of procedure (quantity, proportion...)" ;
        rdfs:range   code:Factor ;
        qb:codeList  code:factor .

ds:obs503  a                        qb:Observation ;
        rdfs:label                  "503" ;
        qb:dataSet                  ds:dataset-AE ;
        crnd-attribute:denominator  "_NULL_" ;
        crnd-attribute:unit         "_NULL_"^^xsd:string ;
        crnd-dimension:aedecod      code:aedecod-ATRIAL_HYPERTROPHY ;
        crnd-dimension:aesoc        code:aesoc-CARDIAC_DISORDERS ;
        crnd-dimension:factor       code:factor-USUBJID ;
        crnd-dimension:procedure    code:procedure-countdistinct ;
        crnd-dimension:saffl        code:saffl-Y ;
        crnd-dimension:trta         code:trta-Placebo ;
        crnd-measure:measure        "1"^^xsd:int .

code:aedecod-SKIN_LESION_EXCISION
        a                  code:Aedecod , skos:Concept ;
        rdfs:comment       "Coded values from data source. No reconciliation against another source"@en ;
        skos:inScheme      code:aedecod ;
        skos:prefLabel     "SKIN LESION EXCISION" ;
        skos:topConceptOf  code:aedecod .

ds:obs33  a                         qb:Observation ;
        rdfs:label                  "33" ;
        qb:dataSet                  ds:dataset-AE ;
        crnd-attribute:denominator  "_NULL_" ;
        crnd-attribute:unit         "_NULL_"^^xsd:string ;
        crnd-dimension:aedecod      code:aedecod-_ALL_ ;
        crnd-dimension:aesoc        code:aesoc-INFECTIONS_AND_INFESTATIONS ;
        crnd-dimension:factor       code:factor-quantity ;
        crnd-dimension:procedure    code:procedure-count ;
        crnd-dimension:saffl        code:saffl-Y ;
        crnd-dimension:trta         code:trta-Xanomeline_High_Dose ;
        crnd-measure:measure        "20"^^xsd:int .

ds:obs258  a                        qb:Observation ;
        rdfs:label                  "258" ;
        qb:dataSet                  ds:dataset-AE ;
        crnd-attribute:denominator  "_NULL_" ;
        crnd-attribute:unit         "_NULL_"^^xsd:string ;
        crnd-dimension:aedecod      code:aedecod-VERTIGO ;
        crnd-dimension:aesoc        code:aesoc-EAR_AND_LABYRINTH_DISORDERS ;
        crnd-dimension:factor       code:factor-quantity ;
        crnd-dimension:procedure    code:procedure-count ;
        crnd-dimension:saffl        code:saffl-Y ;
        crnd-dimension:trta         code:trta-Xanomeline_High_Dose ;
        crnd-measure:measure        "1"^^xsd:int .

ds:obs724  a                        qb:Observation ;
        rdfs:label                  "724" ;
        qb:dataSet                  ds:dataset-AE ;
        crnd-attribute:denominator  "_NULL_" ;
        crnd-attribute:unit         "_NULL_"^^xsd:string ;
        crnd-dimension:aedecod      code:aedecod-COUGH ;
        crnd-dimension:aesoc        code:aesoc-RESPIRATORY__THORACIC_AND_MEDIASTINAL_DISORDERS ;
        crnd-dimension:factor       code:factor-USUBJID ;
        crnd-dimension:procedure    code:procedure-countdistinct ;
        crnd-dimension:saffl        code:saffl-Y ;
        crnd-dimension:trta         code:trta-Xanomeline_High_Dose ;
        crnd-measure:measure        "5"^^xsd:int .

ds:obs479  a                        qb:Observation ;
        rdfs:label                  "479" ;
        qb:dataSet                  ds:dataset-AE ;
        crnd-attribute:denominator  "_NULL_" ;
        crnd-attribute:unit         "_NULL_"^^xsd:string ;
        crnd-dimension:aedecod      code:aedecod-COUGH ;
        crnd-dimension:aesoc        code:aesoc-RESPIRATORY__THORACIC_AND_MEDIASTINAL_DISORDERS ;
        crnd-dimension:factor       code:factor-quantity ;
        crnd-dimension:procedure    code:procedure-count ;
        crnd-dimension:saffl        code:saffl-Y ;
        crnd-dimension:trta         code:trta-Xanomeline_Low_Dose ;
        crnd-measure:measure        "9"^^xsd:int .

ds:obs770  a                        qb:Observation ;
        rdfs:label                  "770" ;
        qb:dataSet                  ds:dataset-AE ;
        crnd-attribute:denominator  "_NULL_" ;
        crnd-attribute:unit         "_NULL_"^^xsd:string ;
        crnd-dimension:aedecod      code:aedecod-DYSPEPSIA ;
        crnd-dimension:aesoc        code:aesoc-GASTROINTESTINAL_DISORDERS ;
        crnd-dimension:factor       code:factor-USUBJID ;
        crnd-dimension:procedure    code:procedure-countdistinct ;
        crnd-dimension:saffl        code:saffl-Y ;
        crnd-dimension:trta         code:trta-Xanomeline_Low_Dose ;
        crnd-measure:measure        "1"^^xsd:int .

ds:obs226  a                        qb:Observation ;
        rdfs:label                  "226" ;
        qb:dataSet                  ds:dataset-AE ;
        crnd-attribute:denominator  "_NULL_" ;
        crnd-attribute:unit         "_NULL_"^^xsd:string ;
        crnd-dimension:aedecod      code:aedecod-PELVIC_PAIN ;
        crnd-dimension:aesoc        code:aesoc-REPRODUCTIVE_SYSTEM_AND_BREAST_DISORDERS ;
        crnd-dimension:factor       code:factor-quantity ;
        crnd-dimension:procedure    code:procedure-count ;
        crnd-dimension:saffl        code:saffl-Y ;
        crnd-dimension:trta         code:trta-Placebo ;
        crnd-measure:measure        "2"^^xsd:int .

code:aedecod-SOMNOLENCE
        a                  code:Aedecod , skos:Concept ;
        rdfs:comment       "Coded values from data source. No reconciliation against another source"@en ;
        skos:inScheme      code:aedecod ;
        skos:prefLabel     "SOMNOLENCE" ;
        skos:topConceptOf  code:aedecod .

code:aedecod-ELECTROCARDIOGRAM_ST_SEGMENT_DEPRESSION
        a                  code:Aedecod , skos:Concept ;
        rdfs:comment       "Coded values from data source. No reconciliation against another source"@en ;
        skos:inScheme      code:aedecod ;
        skos:prefLabel     "ELECTROCARDIOGRAM ST SEGMENT DEPRESSION" ;
        skos:topConceptOf  code:aedecod .

ds:obs272  a                        qb:Observation ;
        rdfs:label                  "272" ;
        qb:dataSet                  ds:dataset-AE ;
        crnd-attribute:denominator  "_NULL_" ;
        crnd-attribute:unit         "_NULL_"^^xsd:string ;
        crnd-dimension:aedecod      code:aedecod-APPLICATION_SITE_IRRITATION ;
        crnd-dimension:aesoc        code:aesoc-GENERAL_DISORDERS_AND_ADMINISTRATION_SITE_CONDITIONS ;
        crnd-dimension:factor       code:factor-quantity ;
        crnd-dimension:procedure    code:procedure-count ;
        crnd-dimension:saffl        code:saffl-Y ;
        crnd-dimension:trta         code:trta-Xanomeline_High_Dose ;
        crnd-measure:measure        "16"^^xsd:int .

code:aedecod-OEDEMA  a     code:Aedecod , skos:Concept ;
        rdfs:comment       "Coded values from data source. No reconciliation against another source"@en ;
        skos:inScheme      code:aedecod ;
        skos:prefLabel     "OEDEMA" ;
        skos:topConceptOf  code:aedecod .

ds:obs447  a                        qb:Observation ;
        rdfs:label                  "447" ;
        qb:dataSet                  ds:dataset-AE ;
        crnd-attribute:denominator  "_NULL_" ;
        crnd-attribute:unit         "_NULL_"^^xsd:string ;
        crnd-dimension:aedecod      code:aedecod-URINE_ANALYSIS_ABNORMAL ;
        crnd-dimension:aesoc        code:aesoc-INVESTIGATIONS ;
        crnd-dimension:factor       code:factor-quantity ;
        crnd-dimension:procedure    code:procedure-count ;
        crnd-dimension:saffl        code:saffl-Y ;
        crnd-dimension:trta         code:trta-Xanomeline_Low_Dose ;
        crnd-measure:measure        "2"^^xsd:int .

code:aedecod-DEHYDRATION
        a                  code:Aedecod , skos:Concept ;
        rdfs:comment       "Coded values from data source. No reconciliation against another source"@en ;
        skos:inScheme      code:aedecod ;
        skos:prefLabel     "DEHYDRATION" ;
        skos:topConceptOf  code:aedecod .

ds:obs493  a                        qb:Observation ;
        rdfs:label                  "493" ;
        qb:dataSet                  ds:dataset-AE ;
        crnd-attribute:denominator  "_NULL_" ;
        crnd-attribute:unit         "_NULL_"^^xsd:string ;
        crnd-dimension:aedecod      code:aedecod-RASH_ERYTHEMATOUS ;
        crnd-dimension:aesoc        code:aesoc-SKIN_AND_SUBCUTANEOUS_TISSUE_DISORDERS ;
        crnd-dimension:factor       code:factor-quantity ;
        crnd-dimension:procedure    code:procedure-count ;
        crnd-dimension:saffl        code:saffl-Y ;
        crnd-dimension:trta         code:trta-Xanomeline_Low_Dose ;
        crnd-measure:measure        "2"^^xsd:int .

code:aedecod-FLANK_PAIN
        a                  code:Aedecod , skos:Concept ;
        rdfs:comment       "Coded values from data source. No reconciliation against another source"@en ;
        skos:inScheme      code:aedecod ;
        skos:prefLabel     "FLANK PAIN" ;
        skos:topConceptOf  code:aedecod .

ds:obs240  a                        qb:Observation ;
        rdfs:label                  "240" ;
        qb:dataSet                  ds:dataset-AE ;
        crnd-attribute:denominator  "_NULL_" ;
        crnd-attribute:unit         "_NULL_"^^xsd:string ;
        crnd-dimension:aedecod      code:aedecod-PRURITUS ;
        crnd-dimension:aesoc        code:aesoc-SKIN_AND_SUBCUTANEOUS_TISSUE_DISORDERS ;
        crnd-dimension:factor       code:factor-quantity ;
        crnd-dimension:procedure    code:procedure-count ;
        crnd-dimension:saffl        code:saffl-Y ;
        crnd-dimension:trta         code:trta-Placebo ;
        crnd-measure:measure        "11"^^xsd:int .

ds:obs668  a                        qb:Observation ;
        rdfs:label                  "668" ;
        qb:dataSet                  ds:dataset-AE ;
        crnd-attribute:denominator  "_NULL_" ;
        crnd-attribute:unit         "_NULL_"^^xsd:string ;
        crnd-dimension:aedecod      code:aedecod-LOWER_RESPIRATORY_TRACT_INFECTION ;
        crnd-dimension:aesoc        code:aesoc-INFECTIONS_AND_INFESTATIONS ;
        crnd-dimension:factor       code:factor-USUBJID ;
        crnd-dimension:procedure    code:procedure-countdistinct ;
        crnd-dimension:saffl        code:saffl-Y ;
        crnd-dimension:trta         code:trta-Xanomeline_High_Dose ;
        crnd-measure:measure        "1"^^xsd:int .

ds:obs415  a                        qb:Observation ;
        rdfs:label                  "415" ;
        qb:dataSet                  ds:dataset-AE ;
        crnd-attribute:denominator  "_NULL_" ;
        crnd-attribute:unit         "_NULL_"^^xsd:string ;
        crnd-dimension:aedecod      code:aedecod-FATIGUE ;
        crnd-dimension:aesoc        code:aesoc-GENERAL_DISORDERS_AND_ADMINISTRATION_SITE_CONDITIONS ;
        crnd-dimension:factor       code:factor-quantity ;
        crnd-dimension:procedure    code:procedure-count ;
        crnd-dimension:saffl        code:saffl-Y ;
        crnd-dimension:trta         code:trta-Xanomeline_Low_Dose ;
        crnd-measure:measure        "5"^^xsd:int .

ds:obs461  a                        qb:Observation ;
        rdfs:label                  "461" ;
        qb:dataSet                  ds:dataset-AE ;
        crnd-attribute:denominator  "_NULL_" ;
        crnd-attribute:unit         "_NULL_"^^xsd:string ;
        crnd-dimension:aedecod      code:aedecod-HEADACHE ;
        crnd-dimension:aesoc        code:aesoc-NERVOUS_SYSTEM_DISORDERS ;
        crnd-dimension:factor       code:factor-quantity ;
        crnd-dimension:procedure    code:procedure-count ;
        crnd-dimension:saffl        code:saffl-Y ;
        crnd-dimension:trta         code:trta-Xanomeline_Low_Dose ;
        crnd-measure:measure        "4"^^xsd:int .

code:aedecod-SECRETION_DISCHARGE
        a                  code:Aedecod , skos:Concept ;
        rdfs:comment       "Coded values from data source. No reconciliation against another source"@en ;
        skos:inScheme      code:aedecod ;
        skos:prefLabel     "SECRETION DISCHARGE" ;
        skos:topConceptOf  code:aedecod .

ds:obs636  a                        qb:Observation ;
        rdfs:label                  "636" ;
        qb:dataSet                  ds:dataset-AE ;
        crnd-attribute:denominator  "_NULL_" ;
        crnd-attribute:unit         "_NULL_"^^xsd:string ;
        crnd-dimension:aedecod      code:aedecod-DYSPEPSIA ;
        crnd-dimension:aesoc        code:aesoc-GASTROINTESTINAL_DISORDERS ;
        crnd-dimension:factor       code:factor-USUBJID ;
        crnd-dimension:procedure    code:procedure-countdistinct ;
        crnd-dimension:saffl        code:saffl-Y ;
        crnd-dimension:trta         code:trta-Xanomeline_High_Dose ;
        crnd-measure:measure        "1"^^xsd:int .

ds:obs682  a                        qb:Observation ;
        rdfs:label                  "682" ;
        qb:dataSet                  ds:dataset-AE ;
        crnd-attribute:denominator  "_NULL_" ;
        crnd-attribute:unit         "_NULL_"^^xsd:string ;
        crnd-dimension:aedecod      code:aedecod-ELECTROCARDIOGRAM_T_WAVE_INVERSION ;
        crnd-dimension:aesoc        code:aesoc-INVESTIGATIONS ;
        crnd-dimension:factor       code:factor-USUBJID ;
        crnd-dimension:procedure    code:procedure-countdistinct ;
        crnd-dimension:saffl        code:saffl-Y ;
        crnd-dimension:trta         code:trta-Xanomeline_High_Dose ;
        crnd-measure:measure        "1"^^xsd:int .

ds:obs138  a                        qb:Observation ;
        rdfs:label                  "138" ;
        qb:dataSet                  ds:dataset-AE ;
        crnd-attribute:denominator  "_NULL_" ;
        crnd-attribute:unit         "_NULL_"^^xsd:string ;
        crnd-dimension:aedecod      code:aedecod-SINUS_ARRHYTHMIA ;
        crnd-dimension:aesoc        code:aesoc-CARDIAC_DISORDERS ;
        crnd-dimension:factor       code:factor-quantity ;
        crnd-dimension:procedure    code:procedure-count ;
        crnd-dimension:saffl        code:saffl-Y ;
        crnd-dimension:trta         code:trta-Placebo ;
        crnd-measure:measure        "2"^^xsd:int .

ds:obs857  a                        qb:Observation ;
        rdfs:label                  "857" ;
        qb:dataSet                  ds:dataset-AE ;
        crnd-attribute:denominator  "_NULL_" ;
        crnd-attribute:unit         "_NULL_"^^xsd:string ;
        crnd-dimension:aedecod      code:aedecod-PHARYNGOLARYNGEAL_PAIN ;
        crnd-dimension:aesoc        code:aesoc-RESPIRATORY__THORACIC_AND_MEDIASTINAL_DISORDERS ;
        crnd-dimension:factor       code:factor-USUBJID ;
        crnd-dimension:procedure    code:procedure-countdistinct ;
        crnd-dimension:saffl        code:saffl-Y ;
        crnd-dimension:trta         code:trta-Xanomeline_Low_Dose ;
        crnd-measure:measure        "1"^^xsd:int .

dccs:aedecod  a       qb:ComponentSpecification ;
        rdfs:label    "Preferred Term" ;
        qb:dimension  crnd-dimension:aedecod .

ds:obs604  a                        qb:Observation ;
        rdfs:label                  "604" ;
        qb:dataSet                  ds:dataset-AE ;
        crnd-attribute:denominator  "_NULL_" ;
        crnd-attribute:unit         "_NULL_"^^xsd:string ;
        crnd-dimension:aedecod      code:aedecod-NASAL_CONGESTION ;
        crnd-dimension:aesoc        code:aesoc-RESPIRATORY__THORACIC_AND_MEDIASTINAL_DISORDERS ;
        crnd-dimension:factor       code:factor-USUBJID ;
        crnd-dimension:procedure    code:procedure-countdistinct ;
        crnd-dimension:saffl        code:saffl-Y ;
        crnd-dimension:trta         code:trta-Placebo ;
        crnd-measure:measure        "3"^^xsd:int .

ds:obs184  a                        qb:Observation ;
        rdfs:label                  "184" ;
        qb:dataSet                  ds:dataset-AE ;
        crnd-attribute:denominator  "_NULL_" ;
        crnd-attribute:unit         "_NULL_"^^xsd:string ;
        crnd-dimension:aedecod      code:aedecod-EXCORIATION ;
        crnd-dimension:aesoc        code:aesoc-INJURY__POISONING_AND_PROCEDURAL_COMPLICATIONS ;
        crnd-dimension:factor       code:factor-quantity ;
        crnd-dimension:procedure    code:procedure-count ;
        crnd-dimension:saffl        code:saffl-Y ;
        crnd-dimension:trta         code:trta-Placebo ;
        crnd-measure:measure        "3"^^xsd:int .

ds:obs359  a                        qb:Observation ;
        rdfs:label                  "359" ;
        qb:dataSet                  ds:dataset-AE ;
        crnd-attribute:denominator  "_NULL_" ;
        crnd-attribute:unit         "_NULL_"^^xsd:string ;
        crnd-dimension:aedecod      code:aedecod-RHINORRHOEA ;
        crnd-dimension:aesoc        code:aesoc-RESPIRATORY__THORACIC_AND_MEDIASTINAL_DISORDERS ;
        crnd-dimension:factor       code:factor-quantity ;
        crnd-dimension:procedure    code:procedure-count ;
        crnd-dimension:saffl        code:saffl-Y ;
        crnd-dimension:trta         code:trta-Xanomeline_High_Dose ;
        crnd-measure:measure        "2"^^xsd:int .

ds:obs650  a                        qb:Observation ;
        rdfs:label                  "650" ;
        qb:dataSet                  ds:dataset-AE ;
        crnd-attribute:denominator  "_NULL_" ;
        crnd-attribute:unit         "_NULL_"^^xsd:string ;
        crnd-dimension:aedecod      code:aedecod-APPLICATION_SITE_SWELLING ;
        crnd-dimension:aesoc        code:aesoc-GENERAL_DISORDERS_AND_ADMINISTRATION_SITE_CONDITIONS ;
        crnd-dimension:factor       code:factor-USUBJID ;
        crnd-dimension:procedure    code:procedure-countdistinct ;
        crnd-dimension:saffl        code:saffl-Y ;
        crnd-dimension:trta         code:trta-Xanomeline_High_Dose ;
        crnd-measure:measure        "2"^^xsd:int .

ds:obs106  a                        qb:Observation ;
        rdfs:label                  "106" ;
        qb:dataSet                  ds:dataset-AE ;
        crnd-attribute:denominator  "_NULL_" ;
        crnd-attribute:unit         "_NULL_"^^xsd:string ;
        crnd-dimension:aedecod      code:aedecod-_ALL_ ;
        crnd-dimension:aesoc        code:aesoc-SOCIAL_CIRCUMSTANCES ;
        crnd-dimension:factor       code:factor-USUBJID ;
        crnd-dimension:procedure    code:procedure-countdistinct ;
        crnd-dimension:saffl        code:saffl-Y ;
        crnd-dimension:trta         code:trta-Xanomeline_High_Dose ;
        crnd-measure:measure        "1"^^xsd:int .

ds:obs825  a                        qb:Observation ;
        rdfs:label                  "825" ;
        qb:dataSet                  ds:dataset-AE ;
        crnd-attribute:denominator  "_NULL_" ;
        crnd-attribute:unit         "_NULL_"^^xsd:string ;
        crnd-dimension:aedecod      code:aedecod-MUSCLE_SPASMS ;
        crnd-dimension:aesoc        code:aesoc-MUSCULOSKELETAL_AND_CONNECTIVE_TISSUE_DISORDERS ;
        crnd-dimension:factor       code:factor-USUBJID ;
        crnd-dimension:procedure    code:procedure-countdistinct ;
        crnd-dimension:saffl        code:saffl-Y ;
        crnd-dimension:trta         code:trta-Xanomeline_Low_Dose ;
        crnd-measure:measure        "1"^^xsd:int .

ds:obs152  a                        qb:Observation ;
        rdfs:label                  "152" ;
        qb:dataSet                  ds:dataset-AE ;
        crnd-attribute:denominator  "_NULL_" ;
        crnd-attribute:unit         "_NULL_"^^xsd:string ;
        crnd-dimension:aedecod      code:aedecod-DYSPEPSIA ;
        crnd-dimension:aesoc        code:aesoc-GASTROINTESTINAL_DISORDERS ;
        crnd-dimension:factor       code:factor-quantity ;
        crnd-dimension:procedure    code:procedure-count ;
        crnd-dimension:saffl        code:saffl-Y ;
        crnd-dimension:trta         code:trta-Placebo ;
        crnd-measure:measure        "2"^^xsd:int .

ds:obs871  a                        qb:Observation ;
        rdfs:label                  "871" ;
        qb:dataSet                  ds:dataset-AE ;
        crnd-attribute:denominator  "_NULL_" ;
        crnd-attribute:unit         "_NULL_"^^xsd:string ;
        crnd-dimension:aedecod      code:aedecod-CATARACT_OPERATION ;
        crnd-dimension:aesoc        code:aesoc-SURGICAL_AND_MEDICAL_PROCEDURES ;
        crnd-dimension:factor       code:factor-USUBJID ;
        crnd-dimension:procedure    code:procedure-countdistinct ;
        crnd-dimension:saffl        code:saffl-Y ;
        crnd-dimension:trta         code:trta-Xanomeline_Low_Dose ;
        crnd-measure:measure        "1"^^xsd:int .

ds:obs327  a                        qb:Observation ;
        rdfs:label                  "327" ;
        qb:dataSet                  ds:dataset-AE ;
        crnd-attribute:denominator  "_NULL_" ;
        crnd-attribute:unit         "_NULL_"^^xsd:string ;
        crnd-dimension:aedecod      code:aedecod-LETHARGY ;
        crnd-dimension:aesoc        code:aesoc-NERVOUS_SYSTEM_DISORDERS ;
        crnd-dimension:factor       code:factor-quantity ;
        crnd-dimension:procedure    code:procedure-count ;
        crnd-dimension:saffl        code:saffl-Y ;
        crnd-dimension:trta         code:trta-Xanomeline_High_Dose ;
        crnd-measure:measure        "1"^^xsd:int .

crnd-attribute:denominator
        a           rdf:Property , qb:AttributeProperty ;
        rdfs:label  "Denominator for a proportion (oskr) subset on which a statistic is based" .

code:aedecod-SYNCOPE  a    code:Aedecod , skos:Concept ;
        rdfs:comment       "Coded values from data source. No reconciliation against another source"@en ;
        skos:inScheme      code:aedecod ;
        skos:prefLabel     "SYNCOPE" ;
        skos:topConceptOf  code:aedecod .

ds:obs373  a                        qb:Observation ;
        rdfs:label                  "373" ;
        qb:dataSet                  ds:dataset-AE ;
        crnd-attribute:denominator  "_NULL_" ;
        crnd-attribute:unit         "_NULL_"^^xsd:string ;
        crnd-dimension:aedecod      code:aedecod-ALCOHOL_USE ;
        crnd-dimension:aesoc        code:aesoc-SOCIAL_CIRCUMSTANCES ;
        crnd-dimension:factor       code:factor-quantity ;
        crnd-dimension:procedure    code:procedure-count ;
        crnd-dimension:saffl        code:saffl-Y ;
        crnd-dimension:trta         code:trta-Xanomeline_High_Dose ;
        crnd-measure:measure        "1"^^xsd:int .

ds:obs120  a                        qb:Observation ;
        rdfs:label                  "120" ;
        qb:dataSet                  ds:dataset-AE ;
        crnd-attribute:denominator  "_NULL_" ;
        crnd-attribute:unit         "_NULL_"^^xsd:string ;
        crnd-dimension:aedecod      code:aedecod-_ALL_ ;
        crnd-dimension:aesoc        code:aesoc-MUSCULOSKELETAL_AND_CONNECTIVE_TISSUE_DISORDERS ;
        crnd-dimension:factor       code:factor-USUBJID ;
        crnd-dimension:procedure    code:procedure-countdistinct ;
        crnd-dimension:saffl        code:saffl-Y ;
        crnd-dimension:trta         code:trta-Xanomeline_Low_Dose ;
        crnd-measure:measure        "7"^^xsd:int .

ds:obs548  a                        qb:Observation ;
        rdfs:label                  "548" ;
        qb:dataSet                  ds:dataset-AE ;
        crnd-attribute:denominator  "_NULL_" ;
        crnd-attribute:unit         "_NULL_"^^xsd:string ;
        crnd-dimension:aedecod      code:aedecod-EAR_INFECTION ;
        crnd-dimension:aesoc        code:aesoc-INFECTIONS_AND_INFESTATIONS ;
        crnd-dimension:factor       code:factor-USUBJID ;
        crnd-dimension:procedure    code:procedure-countdistinct ;
        crnd-dimension:saffl        code:saffl-Y ;
        crnd-dimension:trta         code:trta-Placebo ;
        crnd-measure:measure        "2"^^xsd:int .

ds:obs78  a                         qb:Observation ;
        rdfs:label                  "78" ;
        qb:dataSet                  ds:dataset-AE ;
        crnd-attribute:denominator  "_NULL_" ;
        crnd-attribute:unit         "_NULL_"^^xsd:string ;
        crnd-dimension:aedecod      code:aedecod-_ALL_ ;
        crnd-dimension:aesoc        code:aesoc-MUSCULOSKELETAL_AND_CONNECTIVE_TISSUE_DISORDERS ;
        crnd-dimension:factor       code:factor-USUBJID ;
        crnd-dimension:procedure    code:procedure-countdistinct ;
        crnd-dimension:saffl        code:saffl-Y ;
        crnd-dimension:trta         code:trta-Placebo ;
        crnd-measure:measure        "5"^^xsd:int .

code:aesoc-INFECTIONS_AND_INFESTATIONS
        a                  code:Aesoc , skos:Concept ;
        rdfs:comment       "Coded values from data source. No reconciliation against another source"@en ;
        skos:inScheme      code:aesoc ;
        skos:prefLabel     "INFECTIONS AND INFESTATIONS" ;
        skos:topConceptOf  code:aesoc .

ds:obs594  a                        qb:Observation ;
        rdfs:label                  "594" ;
        qb:dataSet                  ds:dataset-AE ;
        crnd-attribute:denominator  "_NULL_" ;
        crnd-attribute:unit         "_NULL_"^^xsd:string ;
        crnd-dimension:aedecod      code:aedecod-DYSURIA ;
        crnd-dimension:aesoc        code:aesoc-RENAL_AND_URINARY_DISORDERS ;
        crnd-dimension:factor       code:factor-USUBJID ;
        crnd-dimension:procedure    code:procedure-countdistinct ;
        crnd-dimension:saffl        code:saffl-Y ;
        crnd-dimension:trta         code:trta-Placebo ;
        crnd-measure:measure        "1"^^xsd:int .

ds:obs769  a                        qb:Observation ;
        rdfs:label                  "769" ;
        qb:dataSet                  ds:dataset-AE ;
        crnd-attribute:denominator  "_NULL_" ;
        crnd-attribute:unit         "_NULL_"^^xsd:string ;
        crnd-dimension:aedecod      code:aedecod-DIARRHOEA ;
        crnd-dimension:aesoc        code:aesoc-GASTROINTESTINAL_DISORDERS ;
        crnd-dimension:factor       code:factor-USUBJID ;
        crnd-dimension:procedure    code:procedure-countdistinct ;
        crnd-dimension:saffl        code:saffl-Y ;
        crnd-dimension:trta         code:trta-Xanomeline_Low_Dose ;
        crnd-measure:measure        "5"^^xsd:int .

ds:obs341  a                        qb:Observation ;
        rdfs:label                  "341" ;
        qb:dataSet                  ds:dataset-AE ;
        crnd-attribute:denominator  "_NULL_" ;
        crnd-attribute:unit         "_NULL_"^^xsd:string ;
        crnd-dimension:aedecod      code:aedecod-HALLUCINATION__VISUAL ;
        crnd-dimension:aesoc        code:aesoc-PSYCHIATRIC_DISORDERS ;
        crnd-dimension:factor       code:factor-quantity ;
        crnd-dimension:procedure    code:procedure-count ;
        crnd-dimension:saffl        code:saffl-Y ;
        crnd-dimension:trta         code:trta-Xanomeline_High_Dose ;
        crnd-measure:measure        "1"^^xsd:int .

code:aedecod-SUPRAVENTRICULAR_EXTRASYSTOLES
        a                  code:Aedecod , skos:Concept ;
        rdfs:comment       "Coded values from data source. No reconciliation against another source"@en ;
        skos:inScheme      code:aedecod ;
        skos:prefLabel     "SUPRAVENTRICULAR EXTRASYSTOLES" ;
        skos:topConceptOf  code:aedecod .

ds:obs516  a                        qb:Observation ;
        rdfs:label                  "516" ;
        qb:dataSet                  ds:dataset-AE ;
        crnd-attribute:denominator  "_NULL_" ;
        crnd-attribute:unit         "_NULL_"^^xsd:string ;
        crnd-dimension:aedecod      code:aedecod-EAR_PAIN ;
        crnd-dimension:aesoc        code:aesoc-EAR_AND_LABYRINTH_DISORDERS ;
        crnd-dimension:factor       code:factor-USUBJID ;
        crnd-dimension:procedure    code:procedure-countdistinct ;
        crnd-dimension:saffl        code:saffl-Y ;
        crnd-dimension:trta         code:trta-Placebo ;
        crnd-measure:measure        "1"^^xsd:int .

ds:obs46  a                         qb:Observation ;
        rdfs:label                  "46" ;
        qb:dataSet                  ds:dataset-AE ;
        crnd-attribute:denominator  "_NULL_" ;
        crnd-attribute:unit         "_NULL_"^^xsd:string ;
        crnd-dimension:aedecod      code:aedecod-_ALL_ ;
        crnd-dimension:aesoc        code:aesoc-SURGICAL_AND_MEDICAL_PROCEDURES ;
        crnd-dimension:factor       code:factor-quantity ;
        crnd-dimension:procedure    code:procedure-count ;
        crnd-dimension:saffl        code:saffl-Y ;
        crnd-dimension:trta         code:trta-Xanomeline_High_Dose ;
        crnd-measure:measure        "2"^^xsd:int .

ds:obs562  a                        qb:Observation ;
        rdfs:label                  "562" ;
        qb:dataSet                  ds:dataset-AE ;
        crnd-attribute:denominator  "_NULL_" ;
        crnd-attribute:unit         "_NULL_"^^xsd:string ;
        crnd-dimension:aedecod      code:aedecod-BLOOD_CREATINE_PHOSPHOKINASE_INCREASED ;
        crnd-dimension:aesoc        code:aesoc-INVESTIGATIONS ;
        crnd-dimension:factor       code:factor-USUBJID ;
        crnd-dimension:procedure    code:procedure-countdistinct ;
        crnd-dimension:saffl        code:saffl-Y ;
        crnd-dimension:trta         code:trta-Placebo ;
        crnd-measure:measure        "1"^^xsd:int .

ds:obs92  a                         qb:Observation ;
        rdfs:label                  "92" ;
        qb:dataSet                  ds:dataset-AE ;
        crnd-attribute:denominator  "_NULL_" ;
        crnd-attribute:unit         "_NULL_"^^xsd:string ;
        crnd-dimension:aedecod      code:aedecod-_ALL_ ;
        crnd-dimension:aesoc        code:aesoc-GENERAL_DISORDERS_AND_ADMINISTRATION_SITE_CONDITIONS ;
        crnd-dimension:factor       code:factor-USUBJID ;
        crnd-dimension:procedure    code:procedure-countdistinct ;
        crnd-dimension:saffl        code:saffl-Y ;
        crnd-dimension:trta         code:trta-Xanomeline_High_Dose ;
        crnd-measure:measure        "40"^^xsd:int .

ds:obs737  a                        qb:Observation ;
        rdfs:label                  "737" ;
        qb:dataSet                  ds:dataset-AE ;
        crnd-attribute:denominator  "_NULL_" ;
        crnd-attribute:unit         "_NULL_"^^xsd:string ;
        crnd-dimension:aedecod      code:aedecod-PRURITUS ;
        crnd-dimension:aesoc        code:aesoc-SKIN_AND_SUBCUTANEOUS_TISSUE_DISORDERS ;
        crnd-dimension:factor       code:factor-USUBJID ;
        crnd-dimension:procedure    code:procedure-countdistinct ;
        crnd-dimension:saffl        code:saffl-Y ;
        crnd-dimension:trta         code:trta-Xanomeline_High_Dose ;
        crnd-measure:measure        "26"^^xsd:int .

ds:obs14  a                         qb:Observation ;
        rdfs:label                  "14" ;
        qb:dataSet                  ds:dataset-AE ;
        crnd-attribute:denominator  "_NULL_" ;
        crnd-attribute:unit         "_NULL_"^^xsd:string ;
        crnd-dimension:aedecod      code:aedecod-_ALL_ ;
        crnd-dimension:aesoc        code:aesoc-INJURY__POISONING_AND_PROCEDURAL_COMPLICATIONS ;
        crnd-dimension:factor       code:factor-quantity ;
        crnd-dimension:procedure    code:procedure-count ;
        crnd-dimension:saffl        code:saffl-Y ;
        crnd-dimension:trta         code:trta-Placebo ;
        crnd-measure:measure        "9"^^xsd:int .

ds:obs783  a                        qb:Observation ;
        rdfs:label                  "783" ;
        qb:dataSet                  ds:dataset-AE ;
        crnd-attribute:denominator  "_NULL_" ;
        crnd-attribute:unit         "_NULL_"^^xsd:string ;
        crnd-dimension:aedecod      code:aedecod-APPLICATION_SITE_URTICARIA ;
        crnd-dimension:aesoc        code:aesoc-GENERAL_DISORDERS_AND_ADMINISTRATION_SITE_CONDITIONS ;
        crnd-dimension:factor       code:factor-USUBJID ;
        crnd-dimension:procedure    code:procedure-countdistinct ;
        crnd-dimension:saffl        code:saffl-Y ;
        crnd-dimension:trta         code:trta-Xanomeline_Low_Dose ;
        crnd-measure:measure        "2"^^xsd:int .

ds:obs239  a                        qb:Observation ;
        rdfs:label                  "239" ;
        qb:dataSet                  ds:dataset-AE ;
        crnd-attribute:denominator  "_NULL_" ;
        crnd-attribute:unit         "_NULL_"^^xsd:string ;
        crnd-dimension:aedecod      code:aedecod-HYPERHIDROSIS ;
        crnd-dimension:aesoc        code:aesoc-SKIN_AND_SUBCUTANEOUS_TISSUE_DISORDERS ;
        crnd-dimension:factor       code:factor-quantity ;
        crnd-dimension:procedure    code:procedure-count ;
        crnd-dimension:saffl        code:saffl-Y ;
        crnd-dimension:trta         code:trta-Placebo ;
        crnd-measure:measure        "2"^^xsd:int .

ds:obs530  a                        qb:Observation ;
        rdfs:label                  "530" ;
        qb:dataSet                  ds:dataset-AE ;
        crnd-attribute:denominator  "_NULL_" ;
        crnd-attribute:unit         "_NULL_"^^xsd:string ;
        crnd-dimension:aedecod      code:aedecod-NAUSEA ;
        crnd-dimension:aesoc        code:aesoc-GASTROINTESTINAL_DISORDERS ;
        crnd-dimension:factor       code:factor-USUBJID ;
        crnd-dimension:procedure    code:procedure-countdistinct ;
        crnd-dimension:saffl        code:saffl-Y ;
        crnd-dimension:trta         code:trta-Placebo ;
        crnd-measure:measure        "3"^^xsd:int .

code:aedecod-COUGH  a      code:Aedecod , skos:Concept ;
        rdfs:comment       "Coded values from data source. No reconciliation against another source"@en ;
        skos:inScheme      code:aedecod ;
        skos:prefLabel     "COUGH" ;
        skos:topConceptOf  code:aedecod .

ds:obs60  a                         qb:Observation ;
        rdfs:label                  "60" ;
        qb:dataSet                  ds:dataset-AE ;
        crnd-attribute:denominator  "_NULL_" ;
        crnd-attribute:unit         "_NULL_"^^xsd:string ;
        crnd-dimension:aedecod      code:aedecod-_ALL_ ;
        crnd-dimension:aesoc        code:aesoc-NEOPLASMS_BENIGN__MALIGNANT_AND_UNSPECIFIED__INCL_CYSTS_AND_POLYPS_ ;
        crnd-dimension:factor       code:factor-quantity ;
        crnd-dimension:procedure    code:procedure-count ;
        crnd-dimension:saffl        code:saffl-Y ;
        crnd-dimension:trta         code:trta-Xanomeline_Low_Dose ;
        crnd-measure:measure        "3"^^xsd:int .

ds:obs705  a                        qb:Observation ;
        rdfs:label                  "705" ;
        qb:dataSet                  ds:dataset-AE ;
        crnd-attribute:denominator  "_NULL_" ;
        crnd-attribute:unit         "_NULL_"^^xsd:string ;
        crnd-dimension:aedecod      code:aedecod-SYNCOPE ;
        crnd-dimension:aesoc        code:aesoc-NERVOUS_SYSTEM_DISORDERS ;
        crnd-dimension:factor       code:factor-USUBJID ;
        crnd-dimension:procedure    code:procedure-countdistinct ;
        crnd-dimension:saffl        code:saffl-Y ;
        crnd-dimension:trta         code:trta-Xanomeline_High_Dose ;
        crnd-measure:measure        "3"^^xsd:int .

ds:obs285  a                        qb:Observation ;
        rdfs:label                  "285" ;
        qb:dataSet                  ds:dataset-AE ;
        crnd-attribute:denominator  "_NULL_" ;
        crnd-attribute:unit         "_NULL_"^^xsd:string ;
        crnd-dimension:aedecod      code:aedecod-FEELING_ABNORMAL ;
        crnd-dimension:aesoc        code:aesoc-GENERAL_DISORDERS_AND_ADMINISTRATION_SITE_CONDITIONS ;
        crnd-dimension:factor       code:factor-quantity ;
        crnd-dimension:procedure    code:procedure-count ;
        crnd-dimension:saffl        code:saffl-Y ;
        crnd-dimension:trta         code:trta-Xanomeline_High_Dose ;
        crnd-measure:measure        "1"^^xsd:int .

code:aedecod-ALCOHOL_USE
        a                  code:Aedecod , skos:Concept ;
        rdfs:comment       "Coded values from data source. No reconciliation against another source"@en ;
        skos:inScheme      code:aedecod ;
        skos:prefLabel     "ALCOHOL USE" ;
        skos:topConceptOf  code:aedecod .

ds:obs751  a                        qb:Observation ;
        rdfs:label                  "751" ;
        qb:dataSet                  ds:dataset-AE ;
        crnd-attribute:denominator  "_NULL_" ;
        crnd-attribute:unit         "_NULL_"^^xsd:string ;
        crnd-dimension:aedecod      code:aedecod-ATRIAL_FIBRILLATION ;
        crnd-dimension:aesoc        code:aesoc-CARDIAC_DISORDERS ;
        crnd-dimension:factor       code:factor-USUBJID ;
        crnd-dimension:procedure    code:procedure-countdistinct ;
        crnd-dimension:saffl        code:saffl-Y ;
        crnd-dimension:trta         code:trta-Xanomeline_Low_Dose ;
        crnd-measure:measure        "1"^^xsd:int .

ds:obs207  a                        qb:Observation ;
        rdfs:label                  "207" ;
        qb:dataSet                  ds:dataset-AE ;
        crnd-attribute:denominator  "_NULL_" ;
        crnd-attribute:unit         "_NULL_"^^xsd:string ;
        crnd-dimension:aedecod      code:aedecod-SHOULDER_PAIN ;
        crnd-dimension:aesoc        code:aesoc-MUSCULOSKELETAL_AND_CONNECTIVE_TISSUE_DISORDERS ;
        crnd-dimension:factor       code:factor-quantity ;
        crnd-dimension:procedure    code:procedure-count ;
        crnd-dimension:saffl        code:saffl-Y ;
        crnd-dimension:trta         code:trta-Placebo ;
        crnd-measure:measure        "2"^^xsd:int .

code:aedecod-CYST  a       code:Aedecod , skos:Concept ;
        rdfs:comment       "Coded values from data source. No reconciliation against another source"@en ;
        skos:inScheme      code:aedecod ;
        skos:prefLabel     "CYST" ;
        skos:topConceptOf  code:aedecod .

code:aedecod-HYPERTENSION
        a                  code:Aedecod , skos:Concept ;
        rdfs:comment       "Coded values from data source. No reconciliation against another source"@en ;
        skos:inScheme      code:aedecod ;
        skos:prefLabel     "HYPERTENSION" ;
        skos:topConceptOf  code:aedecod .

ds:obs253  a                        qb:Observation ;
        rdfs:label                  "253" ;
        qb:dataSet                  ds:dataset-AE ;
        crnd-attribute:denominator  "_NULL_" ;
        crnd-attribute:unit         "_NULL_"^^xsd:string ;
        crnd-dimension:aedecod      code:aedecod-MYOCARDIAL_INFARCTION ;
        crnd-dimension:aesoc        code:aesoc-CARDIAC_DISORDERS ;
        crnd-dimension:factor       code:factor-quantity ;
        crnd-dimension:procedure    code:procedure-count ;
        crnd-dimension:saffl        code:saffl-Y ;
        crnd-dimension:trta         code:trta-Xanomeline_High_Dose ;
        crnd-measure:measure        "8"^^xsd:int .

ds:obs428  a                        qb:Observation ;
        rdfs:label                  "428" ;
        qb:dataSet                  ds:dataset-AE ;
        crnd-attribute:denominator  "_NULL_" ;
        crnd-attribute:unit         "_NULL_"^^xsd:string ;
        crnd-dimension:aedecod      code:aedecod-LOCALISED_INFECTION ;
        crnd-dimension:aesoc        code:aesoc-INFECTIONS_AND_INFESTATIONS ;
        crnd-dimension:factor       code:factor-quantity ;
        crnd-dimension:procedure    code:procedure-count ;
        crnd-dimension:saffl        code:saffl-Y ;
        crnd-dimension:trta         code:trta-Xanomeline_Low_Dose ;
        crnd-measure:measure        "1"^^xsd:int .

code:aedecod-EPISTAXIS
        a                  code:Aedecod , skos:Concept ;
        rdfs:comment       "Coded values from data source. No reconciliation against another source"@en ;
        skos:inScheme      code:aedecod ;
        skos:prefLabel     "EPISTAXIS" ;
        skos:topConceptOf  code:aedecod .

code:aedecod-BALANCE_DISORDER
        a                  code:Aedecod , skos:Concept ;
        rdfs:comment       "Coded values from data source. No reconciliation against another source"@en ;
        skos:inScheme      code:aedecod ;
        skos:prefLabel     "BALANCE DISORDER" ;
        skos:topConceptOf  code:aedecod .

code:aedecod-EMPHYSEMA
        a                  code:Aedecod , skos:Concept ;
        rdfs:comment       "Coded values from data source. No reconciliation against another source"@en ;
        skos:inScheme      code:aedecod ;
        skos:prefLabel     "EMPHYSEMA" ;
        skos:topConceptOf  code:aedecod .

ds:obs474  a                        qb:Observation ;
        rdfs:label                  "474" ;
        qb:dataSet                  ds:dataset-AE ;
        crnd-attribute:denominator  "_NULL_" ;
        crnd-attribute:unit         "_NULL_"^^xsd:string ;
        crnd-dimension:aedecod      code:aedecod-RESTLESSNESS ;
        crnd-dimension:aesoc        code:aesoc-PSYCHIATRIC_DISORDERS ;
        crnd-dimension:factor       code:factor-quantity ;
        crnd-dimension:procedure    code:procedure-count ;
        crnd-dimension:saffl        code:saffl-Y ;
        crnd-dimension:trta         code:trta-Xanomeline_Low_Dose ;
        crnd-measure:measure        "2"^^xsd:int .

ds:obs221  a                        qb:Observation ;
        rdfs:label                  "221" ;
        qb:dataSet                  ds:dataset-AE ;
        crnd-attribute:denominator  "_NULL_" ;
        crnd-attribute:unit         "_NULL_"^^xsd:string ;
        crnd-dimension:aedecod      code:aedecod-DYSURIA ;
        crnd-dimension:aesoc        code:aesoc-RENAL_AND_URINARY_DISORDERS ;
        crnd-dimension:factor       code:factor-quantity ;
        crnd-dimension:procedure    code:procedure-count ;
        crnd-dimension:saffl        code:saffl-Y ;
        crnd-dimension:trta         code:trta-Placebo ;
        crnd-measure:measure        "1"^^xsd:int .

ds:obs649  a                        qb:Observation ;
        rdfs:label                  "649" ;
        qb:dataSet                  ds:dataset-AE ;
        crnd-attribute:denominator  "_NULL_" ;
        crnd-attribute:unit         "_NULL_"^^xsd:string ;
        crnd-dimension:aedecod      code:aedecod-APPLICATION_SITE_REACTION ;
        crnd-dimension:aesoc        code:aesoc-GENERAL_DISORDERS_AND_ADMINISTRATION_SITE_CONDITIONS ;
        crnd-dimension:factor       code:factor-USUBJID ;
        crnd-dimension:procedure    code:procedure-countdistinct ;
        crnd-dimension:saffl        code:saffl-Y ;
        crnd-dimension:trta         code:trta-Xanomeline_High_Dose ;
        crnd-measure:measure        "1"^^xsd:int .

code:factor-_ALL_  a       code:Factor , skos:Concept ;
        rdfs:comment       "NON-CDISC: Represents all codelist categories."@en ;
        skos:inScheme      code:factor ;
        skos:prefLabel     "_ALL_" ;
        skos:topConceptOf  code:factor .

ds:obs695  a                        qb:Observation ;
        rdfs:label                  "695" ;
        qb:dataSet                  ds:dataset-AE ;
        crnd-attribute:denominator  "_NULL_" ;
        crnd-attribute:unit         "_NULL_"^^xsd:string ;
        crnd-dimension:aedecod      code:aedecod-BURNING_SENSATION ;
        crnd-dimension:aesoc        code:aesoc-NERVOUS_SYSTEM_DISORDERS ;
        crnd-dimension:factor       code:factor-USUBJID ;
        crnd-dimension:procedure    code:procedure-countdistinct ;
        crnd-dimension:saffl        code:saffl-Y ;
        crnd-dimension:trta         code:trta-Xanomeline_High_Dose ;
        crnd-measure:measure        "2"^^xsd:int .

ds:obs442  a                        qb:Observation ;
        rdfs:label                  "442" ;
        qb:dataSet                  ds:dataset-AE ;
        crnd-attribute:denominator  "_NULL_" ;
        crnd-attribute:unit         "_NULL_"^^xsd:string ;
        crnd-dimension:aedecod      code:aedecod-ELECTROCARDIOGRAM_ST_SEGMENT_DEPRESSION ;
        crnd-dimension:aesoc        code:aesoc-INVESTIGATIONS ;
        crnd-dimension:factor       code:factor-quantity ;
        crnd-dimension:procedure    code:procedure-count ;
        crnd-dimension:saffl        code:saffl-Y ;
        crnd-dimension:trta         code:trta-Xanomeline_Low_Dose ;
        crnd-measure:measure        "2"^^xsd:int .

ds:obs617  a                        qb:Observation ;
        rdfs:label                  "617" ;
        qb:dataSet                  ds:dataset-AE ;
        crnd-attribute:denominator  "_NULL_" ;
        crnd-attribute:unit         "_NULL_"^^xsd:string ;
        crnd-dimension:aedecod      code:aedecod-CATARACT_OPERATION ;
        crnd-dimension:aesoc        code:aesoc-SURGICAL_AND_MEDICAL_PROCEDURES ;
        crnd-dimension:factor       code:factor-USUBJID ;
        crnd-dimension:procedure    code:procedure-countdistinct ;
        crnd-dimension:saffl        code:saffl-Y ;
        crnd-dimension:trta         code:trta-Placebo ;
        crnd-measure:measure        "1"^^xsd:int .

code:aedecod-NASOPHARYNGITIS
        a                  code:Aedecod , skos:Concept ;
        rdfs:comment       "Coded values from data source. No reconciliation against another source"@en ;
        skos:inScheme      code:aedecod ;
        skos:prefLabel     "NASOPHARYNGITIS" ;
        skos:topConceptOf  code:aedecod .

ds:obs197  a                        qb:Observation ;
        rdfs:label                  "197" ;
        qb:dataSet                  ds:dataset-AE ;
        crnd-attribute:denominator  "_NULL_" ;
        crnd-attribute:unit         "_NULL_"^^xsd:string ;
        crnd-dimension:aedecod      code:aedecod-DECREASED_APPETITE ;
        crnd-dimension:aesoc        code:aesoc-METABOLISM_AND_NUTRITION_DISORDERS ;
        crnd-dimension:factor       code:factor-quantity ;
        crnd-dimension:procedure    code:procedure-count ;
        crnd-dimension:saffl        code:saffl-Y ;
        crnd-dimension:trta         code:trta-Placebo ;
        crnd-measure:measure        "2"^^xsd:int .

code:aedecod-FATIGUE  a    code:Aedecod , skos:Concept ;
        rdfs:comment       "Coded values from data source. No reconciliation against another source"@en ;
        skos:inScheme      code:aedecod ;
        skos:prefLabel     "FATIGUE" ;
        skos:topConceptOf  code:aedecod .

ds:obs663  a                        qb:Observation ;
        rdfs:label                  "663" ;
        qb:dataSet                  ds:dataset-AE ;
        crnd-attribute:denominator  "_NULL_" ;
        crnd-attribute:unit         "_NULL_"^^xsd:string ;
        crnd-dimension:aedecod      code:aedecod-PYREXIA ;
        crnd-dimension:aesoc        code:aesoc-GENERAL_DISORDERS_AND_ADMINISTRATION_SITE_CONDITIONS ;
        crnd-dimension:factor       code:factor-USUBJID ;
        crnd-dimension:procedure    code:procedure-countdistinct ;
        crnd-dimension:saffl        code:saffl-Y ;
        crnd-dimension:trta         code:trta-Xanomeline_High_Dose ;
        crnd-measure:measure        "1"^^xsd:int .

ds:obs119  a                        qb:Observation ;
        rdfs:label                  "119" ;
        qb:dataSet                  ds:dataset-AE ;
        crnd-attribute:denominator  "_NULL_" ;
        crnd-attribute:unit         "_NULL_"^^xsd:string ;
        crnd-dimension:aedecod      code:aedecod-_ALL_ ;
        crnd-dimension:aesoc        code:aesoc-METABOLISM_AND_NUTRITION_DISORDERS ;
        crnd-dimension:factor       code:factor-USUBJID ;
        crnd-dimension:procedure    code:procedure-countdistinct ;
        crnd-dimension:saffl        code:saffl-Y ;
        crnd-dimension:trta         code:trta-Xanomeline_Low_Dose ;
        crnd-measure:measure        "1"^^xsd:int .

ds:obs410  a                        qb:Observation ;
        rdfs:label                  "410" ;
        qb:dataSet                  ds:dataset-AE ;
        crnd-attribute:denominator  "_NULL_" ;
        crnd-attribute:unit         "_NULL_"^^xsd:string ;
        crnd-dimension:aedecod      code:aedecod-APPLICATION_SITE_URTICARIA ;
        crnd-dimension:aesoc        code:aesoc-GENERAL_DISORDERS_AND_ADMINISTRATION_SITE_CONDITIONS ;
        crnd-dimension:factor       code:factor-quantity ;
        crnd-dimension:procedure    code:procedure-count ;
        crnd-dimension:saffl        code:saffl-Y ;
        crnd-dimension:trta         code:trta-Xanomeline_Low_Dose ;
        crnd-measure:measure        "2"^^xsd:int .

ds:obs838  a                        qb:Observation ;
        rdfs:label                  "838" ;
        qb:dataSet                  ds:dataset-AE ;
        crnd-attribute:denominator  "_NULL_" ;
        crnd-attribute:unit         "_NULL_"^^xsd:string ;
        crnd-dimension:aedecod      code:aedecod-SOMNOLENCE ;
        crnd-dimension:aesoc        code:aesoc-NERVOUS_SYSTEM_DISORDERS ;
        crnd-dimension:factor       code:factor-USUBJID ;
        crnd-dimension:procedure    code:procedure-countdistinct ;
        crnd-dimension:saffl        code:saffl-Y ;
        crnd-dimension:trta         code:trta-Xanomeline_Low_Dose ;
        crnd-measure:measure        "3"^^xsd:int .

ds:obs165  a                        qb:Observation ;
        rdfs:label                  "165" ;
        qb:dataSet                  ds:dataset-AE ;
        crnd-attribute:denominator  "_NULL_" ;
        crnd-attribute:unit         "_NULL_"^^xsd:string ;
        crnd-dimension:aedecod      code:aedecod-APPLICATION_SITE_VESICLES ;
        crnd-dimension:aesoc        code:aesoc-GENERAL_DISORDERS_AND_ADMINISTRATION_SITE_CONDITIONS ;
        crnd-dimension:factor       code:factor-quantity ;
        crnd-dimension:procedure    code:procedure-count ;
        crnd-dimension:saffl        code:saffl-Y ;
        crnd-dimension:trta         code:trta-Placebo ;
        crnd-measure:measure        "2"^^xsd:int .

ds:obs631  a                        qb:Observation ;
        rdfs:label                  "631" ;
        qb:dataSet                  ds:dataset-AE ;
        crnd-attribute:denominator  "_NULL_" ;
        crnd-attribute:unit         "_NULL_"^^xsd:string ;
        crnd-dimension:aedecod      code:aedecod-VERTIGO ;
        crnd-dimension:aesoc        code:aesoc-EAR_AND_LABYRINTH_DISORDERS ;
        crnd-dimension:factor       code:factor-USUBJID ;
        crnd-dimension:procedure    code:procedure-countdistinct ;
        crnd-dimension:saffl        code:saffl-Y ;
        crnd-dimension:trta         code:trta-Xanomeline_High_Dose ;
        crnd-measure:measure        "1"^^xsd:int .

ds:obs806  a                        qb:Observation ;
        rdfs:label                  "806" ;
        qb:dataSet                  ds:dataset-AE ;
        crnd-attribute:denominator  "_NULL_" ;
        crnd-attribute:unit         "_NULL_"^^xsd:string ;
        crnd-dimension:aedecod      code:aedecod-VIRAL_INFECTION ;
        crnd-dimension:aesoc        code:aesoc-INFECTIONS_AND_INFESTATIONS ;
        crnd-dimension:factor       code:factor-USUBJID ;
        crnd-dimension:procedure    code:procedure-countdistinct ;
        crnd-dimension:saffl        code:saffl-Y ;
        crnd-dimension:trta         code:trta-Xanomeline_Low_Dose ;
        crnd-measure:measure        "1"^^xsd:int .

code:aedecod-VOMITING
        a                  code:Aedecod , skos:Concept ;
        rdfs:comment       "Coded values from data source. No reconciliation against another source"@en ;
        skos:inScheme      code:aedecod ;
        skos:prefLabel     "VOMITING" ;
        skos:topConceptOf  code:aedecod .

ds:obs386  a                        qb:Observation ;
        rdfs:label                  "386" ;
        qb:dataSet                  ds:dataset-AE ;
        crnd-attribute:denominator  "_NULL_" ;
        crnd-attribute:unit         "_NULL_"^^xsd:string ;
        crnd-dimension:aedecod      code:aedecod-SUPRAVENTRICULAR_TACHYCARDIA ;
        crnd-dimension:aesoc        code:aesoc-CARDIAC_DISORDERS ;
        crnd-dimension:factor       code:factor-quantity ;
        crnd-dimension:procedure    code:procedure-count ;
        crnd-dimension:saffl        code:saffl-Y ;
        crnd-dimension:trta         code:trta-Xanomeline_Low_Dose ;
        crnd-measure:measure        "2"^^xsd:int .

code:trta-_ALL_  a         code:Trta , skos:Concept ;
        rdfs:comment       "NON-CDISC: Represents all codelist categories."@en ;
        skos:inScheme      code:trta ;
        skos:prefLabel     "_ALL_" ;
        skos:topConceptOf  code:trta .

ds:obs133  a                        qb:Observation ;
        rdfs:label                  "133" ;
        qb:dataSet                  ds:dataset-AE ;
        crnd-attribute:denominator  "_NULL_" ;
        crnd-attribute:unit         "_NULL_"^^xsd:string ;
        crnd-dimension:aedecod      code:aedecod-BRADYCARDIA ;
        crnd-dimension:aesoc        code:aesoc-CARDIAC_DISORDERS ;
        crnd-dimension:factor       code:factor-quantity ;
        crnd-dimension:procedure    code:procedure-count ;
        crnd-dimension:saffl        code:saffl-Y ;
        crnd-dimension:trta         code:trta-Placebo ;
        crnd-measure:measure        "4"^^xsd:int .

ds:obs852  a                        qb:Observation ;
        rdfs:label                  "852" ;
        qb:dataSet                  ds:dataset-AE ;
        crnd-attribute:denominator  "_NULL_" ;
        crnd-attribute:unit         "_NULL_"^^xsd:string ;
        crnd-dimension:aedecod      code:aedecod-COUGH ;
        crnd-dimension:aesoc        code:aesoc-RESPIRATORY__THORACIC_AND_MEDIASTINAL_DISORDERS ;
        crnd-dimension:factor       code:factor-USUBJID ;
        crnd-dimension:procedure    code:procedure-countdistinct ;
        crnd-dimension:saffl        code:saffl-Y ;
        crnd-dimension:trta         code:trta-Xanomeline_Low_Dose ;
        crnd-measure:measure        "6"^^xsd:int .

ds:obs308  a                        qb:Observation ;
        rdfs:label                  "308" ;
        qb:dataSet                  ds:dataset-AE ;
        crnd-attribute:denominator  "_NULL_" ;
        crnd-attribute:unit         "_NULL_"^^xsd:string ;
        crnd-dimension:aedecod      code:aedecod-BLOOD_GLUCOSE_INCREASED ;
        crnd-dimension:aesoc        code:aesoc-INVESTIGATIONS ;
        crnd-dimension:factor       code:factor-quantity ;
        crnd-dimension:procedure    code:procedure-count ;
        crnd-dimension:saffl        code:saffl-Y ;
        crnd-dimension:trta         code:trta-Xanomeline_High_Dose ;
        crnd-measure:measure        "2"^^xsd:int .

code:aedecod-MUSCLE_SPASMS
        a                  code:Aedecod , skos:Concept ;
        rdfs:comment       "Coded values from data source. No reconciliation against another source"@en ;
        skos:inScheme      code:aedecod ;
        skos:prefLabel     "MUSCLE SPASMS" ;
        skos:topConceptOf  code:aedecod .

code:aedecod-HYPERBILIRUBINAEMIA
        a                  code:Aedecod , skos:Concept ;
        rdfs:comment       "Coded values from data source. No reconciliation against another source"@en ;
        skos:inScheme      code:aedecod ;
        skos:prefLabel     "HYPERBILIRUBINAEMIA" ;
        skos:topConceptOf  code:aedecod .

ds:obs820  a                        qb:Observation ;
        rdfs:label                  "820" ;
        qb:dataSet                  ds:dataset-AE ;
        crnd-attribute:denominator  "_NULL_" ;
        crnd-attribute:unit         "_NULL_"^^xsd:string ;
        crnd-dimension:aedecod      code:aedecod-URINE_ANALYSIS_ABNORMAL ;
        crnd-dimension:aesoc        code:aesoc-INVESTIGATIONS ;
        crnd-dimension:factor       code:factor-USUBJID ;
        crnd-dimension:procedure    code:procedure-countdistinct ;
        crnd-dimension:saffl        code:saffl-Y ;
        crnd-dimension:trta         code:trta-Xanomeline_Low_Dose ;
        crnd-measure:measure        "1"^^xsd:int .

ds:obs354  a                        qb:Observation ;
        rdfs:label                  "354" ;
        qb:dataSet                  ds:dataset-AE ;
        crnd-attribute:denominator  "_NULL_" ;
        crnd-attribute:unit         "_NULL_"^^xsd:string ;
        crnd-dimension:aedecod      code:aedecod-NASAL_CONGESTION ;
        crnd-dimension:aesoc        code:aesoc-RESPIRATORY__THORACIC_AND_MEDIASTINAL_DISORDERS ;
        crnd-dimension:factor       code:factor-quantity ;
        crnd-dimension:procedure    code:procedure-count ;
        crnd-dimension:saffl        code:saffl-Y ;
        crnd-dimension:trta         code:trta-Xanomeline_High_Dose ;
        crnd-measure:measure        "4"^^xsd:int .

code:aedecod-DIZZINESS
        a                  code:Aedecod , skos:Concept ;
        rdfs:comment       "Coded values from data source. No reconciliation against another source"@en ;
        skos:inScheme      code:aedecod ;
        skos:prefLabel     "DIZZINESS" ;
        skos:topConceptOf  code:aedecod .

ds:obs101  a                        qb:Observation ;
        rdfs:label                  "101" ;
        qb:dataSet                  ds:dataset-AE ;
        crnd-attribute:denominator  "_NULL_" ;
        crnd-attribute:unit         "_NULL_"^^xsd:string ;
        crnd-dimension:aedecod      code:aedecod-_ALL_ ;
        crnd-dimension:aesoc        code:aesoc-PSYCHIATRIC_DISORDERS ;
        crnd-dimension:factor       code:factor-USUBJID ;
        crnd-dimension:procedure    code:procedure-countdistinct ;
        crnd-dimension:saffl        code:saffl-Y ;
        crnd-dimension:trta         code:trta-Xanomeline_High_Dose ;
        crnd-measure:measure        "9"^^xsd:int .

ds:obs529  a                        qb:Observation ;
        rdfs:label                  "529" ;
        qb:dataSet                  ds:dataset-AE ;
        crnd-attribute:denominator  "_NULL_" ;
        crnd-attribute:unit         "_NULL_"^^xsd:string ;
        crnd-dimension:aedecod      code:aedecod-HIATUS_HERNIA ;
        crnd-dimension:aesoc        code:aesoc-GASTROINTESTINAL_DISORDERS ;
        crnd-dimension:factor       code:factor-USUBJID ;
        crnd-dimension:procedure    code:procedure-countdistinct ;
        crnd-dimension:saffl        code:saffl-Y ;
        crnd-dimension:trta         code:trta-Placebo ;
        crnd-measure:measure        "1"^^xsd:int .

ds:obs59  a                         qb:Observation ;
        rdfs:label                  "59" ;
        qb:dataSet                  ds:dataset-AE ;
        crnd-attribute:denominator  "_NULL_" ;
        crnd-attribute:unit         "_NULL_"^^xsd:string ;
        crnd-dimension:aedecod      code:aedecod-_ALL_ ;
        crnd-dimension:aesoc        code:aesoc-MUSCULOSKELETAL_AND_CONNECTIVE_TISSUE_DISORDERS ;
        crnd-dimension:factor       code:factor-quantity ;
        crnd-dimension:procedure    code:procedure-count ;
        crnd-dimension:saffl        code:saffl-Y ;
        crnd-dimension:trta         code:trta-Xanomeline_Low_Dose ;
        crnd-measure:measure        "10"^^xsd:int .

code:aedecod-PHARYNGEAL_ERYTHEMA
        a                  code:Aedecod , skos:Concept ;
        rdfs:comment       "Coded values from data source. No reconciliation against another source"@en ;
        skos:inScheme      code:aedecod ;
        skos:prefLabel     "PHARYNGEAL ERYTHEMA" ;
        skos:topConceptOf  code:aedecod .

ds:obs575  a                        qb:Observation ;
        rdfs:label                  "575" ;
        qb:dataSet                  ds:dataset-AE ;
        crnd-attribute:denominator  "_NULL_" ;
        crnd-attribute:unit         "_NULL_"^^xsd:string ;
        crnd-dimension:aedecod      code:aedecod-INCREASED_APPETITE ;
        crnd-dimension:aesoc        code:aesoc-METABOLISM_AND_NUTRITION_DISORDERS ;
        crnd-dimension:factor       code:factor-USUBJID ;
        crnd-dimension:procedure    code:procedure-countdistinct ;
        crnd-dimension:saffl        code:saffl-Y ;
        crnd-dimension:trta         code:trta-Placebo ;
        crnd-measure:measure        "1"^^xsd:int .

code:aedecod-HIATUS_HERNIA
        a                  code:Aedecod , skos:Concept ;
        rdfs:comment       "Coded values from data source. No reconciliation against another source"@en ;
        skos:inScheme      code:aedecod ;
        skos:prefLabel     "HIATUS HERNIA" ;
        skos:topConceptOf  code:aedecod .

ds:obs322  a                        qb:Observation ;
        rdfs:label                  "322" ;
        qb:dataSet                  ds:dataset-AE ;
        crnd-attribute:denominator  "_NULL_" ;
        crnd-attribute:unit         "_NULL_"^^xsd:string ;
        crnd-dimension:aedecod      code:aedecod-BURNING_SENSATION ;
        crnd-dimension:aesoc        code:aesoc-NERVOUS_SYSTEM_DISORDERS ;
        crnd-dimension:factor       code:factor-quantity ;
        crnd-dimension:procedure    code:procedure-count ;
        crnd-dimension:saffl        code:saffl-Y ;
        crnd-dimension:trta         code:trta-Xanomeline_High_Dose ;
        crnd-measure:measure        "2"^^xsd:int .

ds:obs27  a                         qb:Observation ;
        rdfs:label                  "27" ;
        qb:dataSet                  ds:dataset-AE ;
        crnd-attribute:denominator  "_NULL_" ;
        crnd-attribute:unit         "_NULL_"^^xsd:string ;
        crnd-dimension:aedecod      code:aedecod-_ALL_ ;
        crnd-dimension:aesoc        code:aesoc-CONGENITAL__FAMILIAL_AND_GENETIC_DISORDERS ;
        crnd-dimension:factor       code:factor-quantity ;
        crnd-dimension:procedure    code:procedure-count ;
        crnd-dimension:saffl        code:saffl-Y ;
        crnd-dimension:trta         code:trta-Xanomeline_High_Dose ;
        crnd-measure:measure        "2"^^xsd:int .

ds:obs796  a                        qb:Observation ;
        rdfs:label                  "796" ;
        qb:dataSet                  ds:dataset-AE ;
        crnd-attribute:denominator  "_NULL_" ;
        crnd-attribute:unit         "_NULL_"^^xsd:string ;
        crnd-dimension:aedecod      code:aedecod-SWELLING ;
        crnd-dimension:aesoc        code:aesoc-GENERAL_DISORDERS_AND_ADMINISTRATION_SITE_CONDITIONS ;
        crnd-dimension:factor       code:factor-USUBJID ;
        crnd-dimension:procedure    code:procedure-countdistinct ;
        crnd-dimension:saffl        code:saffl-Y ;
        crnd-dimension:trta         code:trta-Xanomeline_Low_Dose ;
        crnd-measure:measure        "1"^^xsd:int .

ds:obs543  a                        qb:Observation ;
        rdfs:label                  "543" ;
        qb:dataSet                  ds:dataset-AE ;
        crnd-attribute:denominator  "_NULL_" ;
        crnd-attribute:unit         "_NULL_"^^xsd:string ;
        crnd-dimension:aedecod      code:aedecod-PYREXIA ;
        crnd-dimension:aesoc        code:aesoc-GENERAL_DISORDERS_AND_ADMINISTRATION_SITE_CONDITIONS ;
        crnd-dimension:factor       code:factor-USUBJID ;
        crnd-dimension:procedure    code:procedure-countdistinct ;
        crnd-dimension:saffl        code:saffl-Y ;
        crnd-dimension:trta         code:trta-Placebo ;
        crnd-measure:measure        "2"^^xsd:int .

ds:obs73  a                         qb:Observation ;
        rdfs:label                  "73" ;
        qb:dataSet                  ds:dataset-AE ;
        crnd-attribute:denominator  "_NULL_" ;
        crnd-attribute:unit         "_NULL_"^^xsd:string ;
        crnd-dimension:aedecod      code:aedecod-_ALL_ ;
        crnd-dimension:aesoc        code:aesoc-HEPATOBILIARY_DISORDERS ;
        crnd-dimension:factor       code:factor-USUBJID ;
        crnd-dimension:procedure    code:procedure-countdistinct ;
        crnd-dimension:saffl        code:saffl-Y ;
        crnd-dimension:trta         code:trta-Placebo ;
        crnd-measure:measure        "1"^^xsd:int .

ds:obs718  a                        qb:Observation ;
        rdfs:label                  "718" ;
        qb:dataSet                  ds:dataset-AE ;
        crnd-attribute:denominator  "_NULL_" ;
        crnd-attribute:unit         "_NULL_"^^xsd:string ;
        crnd-dimension:aedecod      code:aedecod-NIGHTMARE ;
        crnd-dimension:aesoc        code:aesoc-PSYCHIATRIC_DISORDERS ;
        crnd-dimension:factor       code:factor-USUBJID ;
        crnd-dimension:procedure    code:procedure-countdistinct ;
        crnd-dimension:saffl        code:saffl-Y ;
        crnd-dimension:trta         code:trta-Xanomeline_High_Dose ;
        crnd-measure:measure        "1"^^xsd:int .

ds:obs298  a                        qb:Observation ;
        rdfs:label                  "298" ;
        qb:dataSet                  ds:dataset-AE ;
        crnd-attribute:denominator  "_NULL_" ;
        crnd-attribute:unit         "_NULL_"^^xsd:string ;
        crnd-dimension:aedecod      code:aedecod-UPPER_RESPIRATORY_TRACT_INFECTION ;
        crnd-dimension:aesoc        code:aesoc-INFECTIONS_AND_INFESTATIONS ;
        crnd-dimension:factor       code:factor-quantity ;
        crnd-dimension:procedure    code:procedure-count ;
        crnd-dimension:saffl        code:saffl-Y ;
        crnd-dimension:trta         code:trta-Xanomeline_High_Dose ;
        crnd-measure:measure        "5"^^xsd:int .

code:aedecod-STUPOR  a     code:Aedecod , skos:Concept ;
        rdfs:comment       "Coded values from data source. No reconciliation against another source"@en ;
        skos:inScheme      code:aedecod ;
        skos:prefLabel     "STUPOR" ;
        skos:topConceptOf  code:aedecod .

ds:obs764  a                        qb:Observation ;
        rdfs:label                  "764" ;
        qb:dataSet                  ds:dataset-AE ;
        crnd-attribute:denominator  "_NULL_" ;
        crnd-attribute:unit         "_NULL_"^^xsd:string ;
        crnd-dimension:aedecod      code:aedecod-TINNITUS ;
        crnd-dimension:aesoc        code:aesoc-EAR_AND_LABYRINTH_DISORDERS ;
        crnd-dimension:factor       code:factor-USUBJID ;
        crnd-dimension:procedure    code:procedure-countdistinct ;
        crnd-dimension:saffl        code:saffl-Y ;
        crnd-dimension:trta         code:trta-Xanomeline_Low_Dose ;
        crnd-measure:measure        "1"^^xsd:int .

ds:obs511  a                        qb:Observation ;
        rdfs:label                  "511" ;
        qb:dataSet                  ds:dataset-AE ;
        crnd-attribute:denominator  "_NULL_" ;
        crnd-attribute:unit         "_NULL_"^^xsd:string ;
        crnd-dimension:aedecod      code:aedecod-SINUS_ARRHYTHMIA ;
        crnd-dimension:aesoc        code:aesoc-CARDIAC_DISORDERS ;
        crnd-dimension:factor       code:factor-USUBJID ;
        crnd-dimension:procedure    code:procedure-countdistinct ;
        crnd-dimension:saffl        code:saffl-Y ;
        crnd-dimension:trta         code:trta-Placebo ;
        crnd-measure:measure        "1"^^xsd:int .

ds:obs41  a                         qb:Observation ;
        rdfs:label                  "41" ;
        qb:dataSet                  ds:dataset-AE ;
        crnd-attribute:denominator  "_NULL_" ;
        crnd-attribute:unit         "_NULL_"^^xsd:string ;
        crnd-dimension:aedecod      code:aedecod-_ALL_ ;
        crnd-dimension:aesoc        code:aesoc-RENAL_AND_URINARY_DISORDERS ;
        crnd-dimension:factor       code:factor-quantity ;
        crnd-dimension:procedure    code:procedure-count ;
        crnd-dimension:saffl        code:saffl-Y ;
        crnd-dimension:trta         code:trta-Xanomeline_High_Dose ;
        crnd-measure:measure        "4"^^xsd:int .

ds:obs266  a                        qb:Observation ;
        rdfs:label                  "266" ;
        qb:dataSet                  ds:dataset-AE ;
        crnd-attribute:denominator  "_NULL_" ;
        crnd-attribute:unit         "_NULL_"^^xsd:string ;
        crnd-dimension:aedecod      code:aedecod-SALIVARY_HYPERSECRETION ;
        crnd-dimension:aesoc        code:aesoc-GASTROINTESTINAL_DISORDERS ;
        crnd-dimension:factor       code:factor-quantity ;
        crnd-dimension:procedure    code:procedure-count ;
        crnd-dimension:saffl        code:saffl-Y ;
        crnd-dimension:trta         code:trta-Xanomeline_High_Dose ;
        crnd-measure:measure        "5"^^xsd:int .

code:aedecod-WOUND  a      code:Aedecod , skos:Concept ;
        rdfs:comment       "Coded values from data source. No reconciliation against another source"@en ;
        skos:inScheme      code:aedecod ;
        skos:prefLabel     "WOUND" ;
        skos:topConceptOf  code:aedecod .

ds:obs732  a                        qb:Observation ;
        rdfs:label                  "732" ;
        qb:dataSet                  ds:dataset-AE ;
        crnd-attribute:denominator  "_NULL_" ;
        crnd-attribute:unit         "_NULL_"^^xsd:string ;
        crnd-dimension:aedecod      code:aedecod-RHINORRHOEA ;
        crnd-dimension:aesoc        code:aesoc-RESPIRATORY__THORACIC_AND_MEDIASTINAL_DISORDERS ;
        crnd-dimension:factor       code:factor-USUBJID ;
        crnd-dimension:procedure    code:procedure-countdistinct ;
        crnd-dimension:saffl        code:saffl-Y ;
        crnd-dimension:trta         code:trta-Xanomeline_High_Dose ;
        crnd-measure:measure        "1"^^xsd:int .

ds:obs487  a                        qb:Observation ;
        rdfs:label                  "487" ;
        qb:dataSet                  ds:dataset-AE ;
        crnd-attribute:denominator  "_NULL_" ;
        crnd-attribute:unit         "_NULL_"^^xsd:string ;
        crnd-dimension:aedecod      code:aedecod-DERMATITIS_CONTACT ;
        crnd-dimension:aesoc        code:aesoc-SKIN_AND_SUBCUTANEOUS_TISSUE_DISORDERS ;
        crnd-dimension:factor       code:factor-quantity ;
        crnd-dimension:procedure    code:procedure-count ;
        crnd-dimension:saffl        code:saffl-Y ;
        crnd-dimension:trta         code:trta-Xanomeline_Low_Dose ;
        crnd-measure:measure        "2"^^xsd:int .

ds:obs234  a                        qb:Observation ;
        rdfs:label                  "234" ;
        qb:dataSet                  ds:dataset-AE ;
        crnd-attribute:denominator  "_NULL_" ;
        crnd-attribute:unit         "_NULL_"^^xsd:string ;
        crnd-dimension:aedecod      code:aedecod-ALOPECIA ;
        crnd-dimension:aesoc        code:aesoc-SKIN_AND_SUBCUTANEOUS_TISSUE_DISORDERS ;
        crnd-dimension:factor       code:factor-quantity ;
        crnd-dimension:procedure    code:procedure-count ;
        crnd-dimension:saffl        code:saffl-Y ;
        crnd-dimension:trta         code:trta-Placebo ;
        crnd-measure:measure        "1"^^xsd:int .

ds:obs409  a                        qb:Observation ;
        rdfs:label                  "409" ;
        qb:dataSet                  ds:dataset-AE ;
        crnd-attribute:denominator  "_NULL_" ;
        crnd-attribute:unit         "_NULL_"^^xsd:string ;
        crnd-dimension:aedecod      code:aedecod-APPLICATION_SITE_SWELLING ;
        crnd-dimension:aesoc        code:aesoc-GENERAL_DISORDERS_AND_ADMINISTRATION_SITE_CONDITIONS ;
        crnd-dimension:factor       code:factor-quantity ;
        crnd-dimension:procedure    code:procedure-count ;
        crnd-dimension:saffl        code:saffl-Y ;
        crnd-dimension:trta         code:trta-Xanomeline_Low_Dose ;
        crnd-measure:measure        "1"^^xsd:int .

ds:obs700  a                        qb:Observation ;
        rdfs:label                  "700" ;
        qb:dataSet                  ds:dataset-AE ;
        crnd-attribute:denominator  "_NULL_" ;
        crnd-attribute:unit         "_NULL_"^^xsd:string ;
        crnd-dimension:aedecod      code:aedecod-LETHARGY ;
        crnd-dimension:aesoc        code:aesoc-NERVOUS_SYSTEM_DISORDERS ;
        crnd-dimension:factor       code:factor-USUBJID ;
        crnd-dimension:procedure    code:procedure-countdistinct ;
        crnd-dimension:saffl        code:saffl-Y ;
        crnd-dimension:trta         code:trta-Xanomeline_High_Dose ;
        crnd-measure:measure        "1"^^xsd:int .

code:aedecod-INFLUENZA
        a                  code:Aedecod , skos:Concept ;
        rdfs:comment       "Coded values from data source. No reconciliation against another source"@en ;
        skos:inScheme      code:aedecod ;
        skos:prefLabel     "INFLUENZA" ;
        skos:topConceptOf  code:aedecod .

ds:obs280  a                        qb:Observation ;
        rdfs:label                  "280" ;
        qb:dataSet                  ds:dataset-AE ;
        crnd-attribute:denominator  "_NULL_" ;
        crnd-attribute:unit         "_NULL_"^^xsd:string ;
        crnd-dimension:aedecod      code:aedecod-ASTHENIA ;
        crnd-dimension:aesoc        code:aesoc-GENERAL_DISORDERS_AND_ADMINISTRATION_SITE_CONDITIONS ;
        crnd-dimension:factor       code:factor-quantity ;
        crnd-dimension:procedure    code:procedure-count ;
        crnd-dimension:saffl        code:saffl-Y ;
        crnd-dimension:trta         code:trta-Xanomeline_High_Dose ;
        crnd-measure:measure        "1"^^xsd:int .

ds:obs455  a                        qb:Observation ;
        rdfs:label                  "455" ;
        qb:dataSet                  ds:dataset-AE ;
        crnd-attribute:denominator  "_NULL_" ;
        crnd-attribute:unit         "_NULL_"^^xsd:string ;
        crnd-dimension:aedecod      code:aedecod-COLON_CANCER ;
        crnd-dimension:aesoc        code:aesoc-NEOPLASMS_BENIGN__MALIGNANT_AND_UNSPECIFIED__INCL_CYSTS_AND_POLYPS_ ;
        crnd-dimension:factor       code:factor-quantity ;
        crnd-dimension:procedure    code:procedure-count ;
        crnd-dimension:saffl        code:saffl-Y ;
        crnd-dimension:trta         code:trta-Xanomeline_Low_Dose ;
        crnd-measure:measure        "1"^^xsd:int .

code:aedecod-HEMIANOPIA_HOMONYMOUS
        a                  code:Aedecod , skos:Concept ;
        rdfs:comment       "Coded values from data source. No reconciliation against another source"@en ;
        skos:inScheme      code:aedecod ;
        skos:prefLabel     "HEMIANOPIA HOMONYMOUS" ;
        skos:topConceptOf  code:aedecod .

ds:obs202  a                        qb:Observation ;
        rdfs:label                  "202" ;
        qb:dataSet                  ds:dataset-AE ;
        crnd-attribute:denominator  "_NULL_" ;
        crnd-attribute:unit         "_NULL_"^^xsd:string ;
        crnd-dimension:aedecod      code:aedecod-INCREASED_APPETITE ;
        crnd-dimension:aesoc        code:aesoc-METABOLISM_AND_NUTRITION_DISORDERS ;
        crnd-dimension:factor       code:factor-quantity ;
        crnd-dimension:procedure    code:procedure-count ;
        crnd-dimension:saffl        code:saffl-Y ;
        crnd-dimension:trta         code:trta-Placebo ;
        crnd-measure:measure        "2"^^xsd:int .

code:aedecod-MALIGNANT_FIBROUS_HISTIOCYTOMA
        a                  code:Aedecod , skos:Concept ;
        rdfs:comment       "Coded values from data source. No reconciliation against another source"@en ;
        skos:inScheme      code:aedecod ;
        skos:prefLabel     "MALIGNANT FIBROUS HISTIOCYTOMA" ;
        skos:topConceptOf  code:aedecod .

ds:obs676  a                        qb:Observation ;
        rdfs:label                  "676" ;
        qb:dataSet                  ds:dataset-AE ;
        crnd-attribute:denominator  "_NULL_" ;
        crnd-attribute:unit         "_NULL_"^^xsd:string ;
        crnd-dimension:aedecod      code:aedecod-FALL ;
        crnd-dimension:aesoc        code:aesoc-INJURY__POISONING_AND_PROCEDURAL_COMPLICATIONS ;
        crnd-dimension:factor       code:factor-USUBJID ;
        crnd-dimension:procedure    code:procedure-countdistinct ;
        crnd-dimension:saffl        code:saffl-Y ;
        crnd-dimension:trta         code:trta-Xanomeline_High_Dose ;
        crnd-measure:measure        "1"^^xsd:int .

ds:obs423  a                        qb:Observation ;
        rdfs:label                  "423" ;
        qb:dataSet                  ds:dataset-AE ;
        crnd-attribute:denominator  "_NULL_" ;
        crnd-attribute:unit         "_NULL_"^^xsd:string ;
        crnd-dimension:aedecod      code:aedecod-SWELLING ;
        crnd-dimension:aesoc        code:aesoc-GENERAL_DISORDERS_AND_ADMINISTRATION_SITE_CONDITIONS ;
        crnd-dimension:factor       code:factor-quantity ;
        crnd-dimension:procedure    code:procedure-count ;
        crnd-dimension:saffl        code:saffl-Y ;
        crnd-dimension:trta         code:trta-Xanomeline_Low_Dose ;
        crnd-measure:measure        "1"^^xsd:int .

ds:obs178  a                        qb:Observation ;
        rdfs:label                  "178" ;
        qb:dataSet                  ds:dataset-AE ;
        crnd-attribute:denominator  "_NULL_" ;
        crnd-attribute:unit         "_NULL_"^^xsd:string ;
        crnd-dimension:aedecod      code:aedecod-LOCALISED_INFECTION ;
        crnd-dimension:aesoc        code:aesoc-INFECTIONS_AND_INFESTATIONS ;
        crnd-dimension:factor       code:factor-quantity ;
        crnd-dimension:procedure    code:procedure-count ;
        crnd-dimension:saffl        code:saffl-Y ;
        crnd-dimension:trta         code:trta-Placebo ;
        crnd-measure:measure        "2"^^xsd:int .

ds:obs644  a                        qb:Observation ;
        rdfs:label                  "644" ;
        qb:dataSet                  ds:dataset-AE ;
        crnd-attribute:denominator  "_NULL_" ;
        crnd-attribute:unit         "_NULL_"^^xsd:string ;
        crnd-dimension:aedecod      code:aedecod-APPLICATION_SITE_ERYTHEMA ;
        crnd-dimension:aesoc        code:aesoc-GENERAL_DISORDERS_AND_ADMINISTRATION_SITE_CONDITIONS ;
        crnd-dimension:factor       code:factor-USUBJID ;
        crnd-dimension:procedure    code:procedure-countdistinct ;
        crnd-dimension:saffl        code:saffl-Y ;
        crnd-dimension:trta         code:trta-Xanomeline_High_Dose ;
        crnd-measure:measure        "15"^^xsd:int .

code:aedecod-NASAL_CONGESTION
        a                  code:Aedecod , skos:Concept ;
        rdfs:comment       "Coded values from data source. No reconciliation against another source"@en ;
        skos:inScheme      code:aedecod ;
        skos:prefLabel     "NASAL CONGESTION" ;
        skos:topConceptOf  code:aedecod .

ds:obs819  a                        qb:Observation ;
        rdfs:label                  "819" ;
        qb:dataSet                  ds:dataset-AE ;
        crnd-attribute:denominator  "_NULL_" ;
        crnd-attribute:unit         "_NULL_"^^xsd:string ;
        crnd-dimension:aedecod      code:aedecod-NEUTROPHIL_COUNT_INCREASED ;
        crnd-dimension:aesoc        code:aesoc-INVESTIGATIONS ;
        crnd-dimension:factor       code:factor-USUBJID ;
        crnd-dimension:procedure    code:procedure-countdistinct ;
        crnd-dimension:saffl        code:saffl-Y ;
        crnd-dimension:trta         code:trta-Xanomeline_Low_Dose ;
        crnd-measure:measure        "1"^^xsd:int .

ds:obs399  a                        qb:Observation ;
        rdfs:label                  "399" ;
        qb:dataSet                  ds:dataset-AE ;
        crnd-attribute:denominator  "_NULL_" ;
        crnd-attribute:unit         "_NULL_"^^xsd:string ;
        crnd-dimension:aedecod      code:aedecod-NAUSEA ;
        crnd-dimension:aesoc        code:aesoc-GASTROINTESTINAL_DISORDERS ;
        crnd-dimension:factor       code:factor-quantity ;
        crnd-dimension:procedure    code:procedure-count ;
        crnd-dimension:saffl        code:saffl-Y ;
        crnd-dimension:trta         code:trta-Xanomeline_Low_Dose ;
        crnd-measure:measure        "5"^^xsd:int .

ds:obs690  a                        qb:Observation ;
        rdfs:label                  "690" ;
        qb:dataSet                  ds:dataset-AE ;
        crnd-attribute:denominator  "_NULL_" ;
        crnd-attribute:unit         "_NULL_"^^xsd:string ;
        crnd-dimension:aedecod      code:aedecod-FLANK_PAIN ;
        crnd-dimension:aesoc        code:aesoc-MUSCULOSKELETAL_AND_CONNECTIVE_TISSUE_DISORDERS ;
        crnd-dimension:factor       code:factor-USUBJID ;
        crnd-dimension:procedure    code:procedure-countdistinct ;
        crnd-dimension:saffl        code:saffl-Y ;
        crnd-dimension:trta         code:trta-Xanomeline_High_Dose ;
        crnd-measure:measure        "2"^^xsd:int .

ds:obs146  a                        qb:Observation ;
        rdfs:label                  "146" ;
        qb:dataSet                  ds:dataset-AE ;
        crnd-attribute:denominator  "_NULL_" ;
        crnd-attribute:unit         "_NULL_"^^xsd:string ;
        crnd-dimension:aedecod      code:aedecod-EYE_PRURITUS ;
        crnd-dimension:aesoc        code:aesoc-EYE_DISORDERS ;
        crnd-dimension:factor       code:factor-quantity ;
        crnd-dimension:procedure    code:procedure-count ;
        crnd-dimension:saffl        code:saffl-Y ;
        crnd-dimension:trta         code:trta-Placebo ;
        crnd-measure:measure        "1"^^xsd:int .

code:aedecod-JOINT_DISLOCATION
        a                  code:Aedecod , skos:Concept ;
        rdfs:comment       "Coded values from data source. No reconciliation against another source"@en ;
        skos:inScheme      code:aedecod ;
        skos:prefLabel     "JOINT DISLOCATION" ;
        skos:topConceptOf  code:aedecod .

ds:obs865  a                        qb:Observation ;
        rdfs:label                  "865" ;
        qb:dataSet                  ds:dataset-AE ;
        crnd-attribute:denominator  "_NULL_" ;
        crnd-attribute:unit         "_NULL_"^^xsd:string ;
        crnd-dimension:aedecod      code:aedecod-RASH ;
        crnd-dimension:aesoc        code:aesoc-SKIN_AND_SUBCUTANEOUS_TISSUE_DISORDERS ;
        crnd-dimension:factor       code:factor-USUBJID ;
        crnd-dimension:procedure    code:procedure-countdistinct ;
        crnd-dimension:saffl        code:saffl-Y ;
        crnd-dimension:trta         code:trta-Xanomeline_Low_Dose ;
        crnd-measure:measure        "13"^^xsd:int .

code:procedure  a             skos:ConceptScheme ;
        rdfs:label            "Codelist scheme: procedure"@en ;
        rrdfqbcrnd0:codeType  "DATA" ;
        skos:hasTopConcept    code:procedure-_NONMISS_ , code:procedure-countdistinct , code:procedure-_ALL_ , code:procedure-count ;
        skos:notation         "CL_PROCEDURE" ;
        skos:note             "Specifies the procedure for each observation, group of obs. or all categories (_ALL_)label "@en ;
        skos:prefLabel        "Codelist scheme: procedure"@en .

ds:obs612  a                        qb:Observation ;
        rdfs:label                  "612" ;
        qb:dataSet                  ds:dataset-AE ;
        crnd-attribute:denominator  "_NULL_" ;
        crnd-attribute:unit         "_NULL_"^^xsd:string ;
        crnd-dimension:aedecod      code:aedecod-HYPERHIDROSIS ;
        crnd-dimension:aesoc        code:aesoc-SKIN_AND_SUBCUTANEOUS_TISSUE_DISORDERS ;
        crnd-dimension:factor       code:factor-USUBJID ;
        crnd-dimension:procedure    code:procedure-countdistinct ;
        crnd-dimension:saffl        code:saffl-Y ;
        crnd-dimension:trta         code:trta-Placebo ;
        crnd-measure:measure        "2"^^xsd:int .

ds:obs367  a                        qb:Observation ;
        rdfs:label                  "367" ;
        qb:dataSet                  ds:dataset-AE ;
        crnd-attribute:denominator  "_NULL_" ;
        crnd-attribute:unit         "_NULL_"^^xsd:string ;
        crnd-dimension:aedecod      code:aedecod-RASH_MACULO-PAPULAR ;
        crnd-dimension:aesoc        code:aesoc-SKIN_AND_SUBCUTANEOUS_TISSUE_DISORDERS ;
        crnd-dimension:factor       code:factor-quantity ;
        crnd-dimension:procedure    code:procedure-count ;
        crnd-dimension:saffl        code:saffl-Y ;
        crnd-dimension:trta         code:trta-Xanomeline_High_Dose ;
        crnd-measure:measure        "3"^^xsd:int .

ds:obs192  a                        qb:Observation ;
        rdfs:label                  "192" ;
        qb:dataSet                  ds:dataset-AE ;
        crnd-attribute:denominator  "_NULL_" ;
        crnd-attribute:unit         "_NULL_"^^xsd:string ;
        crnd-dimension:aedecod      code:aedecod-ELECTROCARDIOGRAM_ST_SEGMENT_DEPRESSION ;
        crnd-dimension:aesoc        code:aesoc-INVESTIGATIONS ;
        crnd-dimension:factor       code:factor-quantity ;
        crnd-dimension:procedure    code:procedure-count ;
        crnd-dimension:saffl        code:saffl-Y ;
        crnd-dimension:trta         code:trta-Placebo ;
        crnd-measure:measure        "4"^^xsd:int .

code:aedecod-TACHYCARDIA
        a                  code:Aedecod , skos:Concept ;
        rdfs:comment       "Coded values from data source. No reconciliation against another source"@en ;
        skos:inScheme      code:aedecod ;
        skos:prefLabel     "TACHYCARDIA" ;
        skos:topConceptOf  code:aedecod .

code:aesoc-PSYCHIATRIC_DISORDERS
        a                  code:Aesoc , skos:Concept ;
        rdfs:comment       "Coded values from data source. No reconciliation against another source"@en ;
        skos:inScheme      code:aesoc ;
        skos:prefLabel     "PSYCHIATRIC DISORDERS" ;
        skos:topConceptOf  code:aesoc .

code:aedecod-CARDIAC_DISORDER
        a                  code:Aedecod , skos:Concept ;
        rdfs:comment       "Coded values from data source. No reconciliation against another source"@en ;
        skos:inScheme      code:aedecod ;
        skos:prefLabel     "CARDIAC DISORDER" ;
        skos:topConceptOf  code:aedecod .

code:aedecod-MYOCARDIAL_INFARCTION
        a                  code:Aedecod , skos:Concept ;
        rdfs:comment       "Coded values from data source. No reconciliation against another source"@en ;
        skos:inScheme      code:aedecod ;
        skos:prefLabel     "MYOCARDIAL INFARCTION" ;
        skos:topConceptOf  code:aedecod .

ds:obs114  a                        qb:Observation ;
        rdfs:label                  "114" ;
        qb:dataSet                  ds:dataset-AE ;
        crnd-attribute:denominator  "_NULL_" ;
        crnd-attribute:unit         "_NULL_"^^xsd:string ;
        crnd-dimension:aedecod      code:aedecod-_ALL_ ;
        crnd-dimension:aesoc        code:aesoc-GENERAL_DISORDERS_AND_ADMINISTRATION_SITE_CONDITIONS ;
        crnd-dimension:factor       code:factor-USUBJID ;
        crnd-dimension:procedure    code:procedure-countdistinct ;
        crnd-dimension:saffl        code:saffl-Y ;
        crnd-dimension:trta         code:trta-Xanomeline_Low_Dose ;
        crnd-measure:measure        "47"^^xsd:int .

ds:obs833  a                        qb:Observation ;
        rdfs:label                  "833" ;
        qb:dataSet                  ds:dataset-AE ;
        crnd-attribute:denominator  "_NULL_" ;
        crnd-attribute:unit         "_NULL_"^^xsd:string ;
        crnd-dimension:aedecod      code:aedecod-DIZZINESS ;
        crnd-dimension:aesoc        code:aesoc-NERVOUS_SYSTEM_DISORDERS ;
        crnd-dimension:factor       code:factor-USUBJID ;
        crnd-dimension:procedure    code:procedure-countdistinct ;
        crnd-dimension:saffl        code:saffl-Y ;
        crnd-dimension:trta         code:trta-Xanomeline_Low_Dose ;
        crnd-measure:measure        "8"^^xsd:int .

ds:obs160  a                        qb:Observation ;
        rdfs:label                  "160" ;
        qb:dataSet                  ds:dataset-AE ;
        crnd-attribute:denominator  "_NULL_" ;
        crnd-attribute:unit         "_NULL_"^^xsd:string ;
        crnd-dimension:aedecod      code:aedecod-APPLICATION_SITE_ERYTHEMA ;
        crnd-dimension:aesoc        code:aesoc-GENERAL_DISORDERS_AND_ADMINISTRATION_SITE_CONDITIONS ;
        crnd-dimension:factor       code:factor-quantity ;
        crnd-dimension:procedure    code:procedure-count ;
        crnd-dimension:saffl        code:saffl-Y ;
        crnd-dimension:trta         code:trta-Placebo ;
        crnd-measure:measure        "3"^^xsd:int .

ds:obs588  a                        qb:Observation ;
        rdfs:label                  "588" ;
        qb:dataSet                  ds:dataset-AE ;
        crnd-attribute:denominator  "_NULL_" ;
        crnd-attribute:unit         "_NULL_"^^xsd:string ;
        crnd-dimension:aedecod      code:aedecod-COMPLETED_SUICIDE ;
        crnd-dimension:aesoc        code:aesoc-PSYCHIATRIC_DISORDERS ;
        crnd-dimension:factor       code:factor-USUBJID ;
        crnd-dimension:procedure    code:procedure-countdistinct ;
        crnd-dimension:saffl        code:saffl-Y ;
        crnd-dimension:trta         code:trta-Placebo ;
        crnd-measure:measure        "1"^^xsd:int .

ds:obs335  a                        qb:Observation ;
        rdfs:label                  "335" ;
        qb:dataSet                  ds:dataset-AE ;
        crnd-attribute:denominator  "_NULL_" ;
        crnd-attribute:unit         "_NULL_"^^xsd:string ;
        crnd-dimension:aedecod      code:aedecod-AGITATION ;
        crnd-dimension:aesoc        code:aesoc-PSYCHIATRIC_DISORDERS ;
        crnd-dimension:factor       code:factor-quantity ;
        crnd-dimension:procedure    code:procedure-count ;
        crnd-dimension:saffl        code:saffl-Y ;
        crnd-dimension:trta         code:trta-Xanomeline_High_Dose ;
        crnd-measure:measure        "1"^^xsd:int .

code:aedecod-RESPIRATORY_TRACT_CONGESTION
        a                  code:Aedecod , skos:Concept ;
        rdfs:comment       "Coded values from data source. No reconciliation against another source"@en ;
        skos:inScheme      code:aedecod ;
        skos:prefLabel     "RESPIRATORY TRACT CONGESTION" ;
        skos:topConceptOf  code:aedecod .

ds:obs801  a                        qb:Observation ;
        rdfs:label                  "801" ;
        qb:dataSet                  ds:dataset-AE ;
        crnd-attribute:denominator  "_NULL_" ;
        crnd-attribute:unit         "_NULL_"^^xsd:string ;
        crnd-dimension:aedecod      code:aedecod-LOCALISED_INFECTION ;
        crnd-dimension:aesoc        code:aesoc-INFECTIONS_AND_INFESTATIONS ;
        crnd-dimension:factor       code:factor-USUBJID ;
        crnd-dimension:procedure    code:procedure-countdistinct ;
        crnd-dimension:saffl        code:saffl-Y ;
        crnd-dimension:trta         code:trta-Xanomeline_Low_Dose ;
        crnd-measure:measure        "1"^^xsd:int .

code:aedecod-ELECTROCARDIOGRAM_T_WAVE_AMPLITUDE_DECREASED
        a                  code:Aedecod , skos:Concept ;
        rdfs:comment       "Coded values from data source. No reconciliation against another source"@en ;
        skos:inScheme      code:aedecod ;
        skos:prefLabel     "ELECTROCARDIOGRAM T WAVE AMPLITUDE DECREASED" ;
        skos:topConceptOf  code:aedecod .

ds:obs381  a                        qb:Observation ;
        rdfs:label                  "381" ;
        qb:dataSet                  ds:dataset-AE ;
        crnd-attribute:denominator  "_NULL_" ;
        crnd-attribute:unit         "_NULL_"^^xsd:string ;
        crnd-dimension:aedecod      code:aedecod-BUNDLE_BRANCH_BLOCK_RIGHT ;
        crnd-dimension:aesoc        code:aesoc-CARDIAC_DISORDERS ;
        crnd-dimension:factor       code:factor-quantity ;
        crnd-dimension:procedure    code:procedure-count ;
        crnd-dimension:saffl        code:saffl-Y ;
        crnd-dimension:trta         code:trta-Xanomeline_Low_Dose ;
        crnd-measure:measure        "1"^^xsd:int .

ds:obs556  a                        qb:Observation ;
        rdfs:label                  "556" ;
        qb:dataSet                  ds:dataset-AE ;
        crnd-attribute:denominator  "_NULL_" ;
        crnd-attribute:unit         "_NULL_"^^xsd:string ;
        crnd-dimension:aedecod      code:aedecod-CONTUSION ;
        crnd-dimension:aesoc        code:aesoc-INJURY__POISONING_AND_PROCEDURAL_COMPLICATIONS ;
        crnd-dimension:factor       code:factor-USUBJID ;
        crnd-dimension:procedure    code:procedure-countdistinct ;
        crnd-dimension:saffl        code:saffl-Y ;
        crnd-dimension:trta         code:trta-Placebo ;
        crnd-measure:measure        "1"^^xsd:int .

ds:obs303  a                        qb:Observation ;
        rdfs:label                  "303" ;
        qb:dataSet                  ds:dataset-AE ;
        crnd-attribute:denominator  "_NULL_" ;
        crnd-attribute:unit         "_NULL_"^^xsd:string ;
        crnd-dimension:aedecod      code:aedecod-FALL ;
        crnd-dimension:aesoc        code:aesoc-INJURY__POISONING_AND_PROCEDURAL_COMPLICATIONS ;
        crnd-dimension:factor       code:factor-quantity ;
        crnd-dimension:procedure    code:procedure-count ;
        crnd-dimension:saffl        code:saffl-Y ;
        crnd-dimension:trta         code:trta-Xanomeline_High_Dose ;
        crnd-measure:measure        "1"^^xsd:int .

ds:obs86  a                         qb:Observation ;
        rdfs:label                  "86" ;
        qb:dataSet                  ds:dataset-AE ;
        crnd-attribute:denominator  "_NULL_" ;
        crnd-attribute:unit         "_NULL_"^^xsd:string ;
        crnd-dimension:aedecod      code:aedecod-_ALL_ ;
        crnd-dimension:aesoc        code:aesoc-VASCULAR_DISORDERS ;
        crnd-dimension:factor       code:factor-USUBJID ;
        crnd-dimension:procedure    code:procedure-countdistinct ;
        crnd-dimension:saffl        code:saffl-Y ;
        crnd-dimension:trta         code:trta-Placebo ;
        crnd-measure:measure        "3"^^xsd:int .

ds:obs777  a                        qb:Observation ;
        rdfs:label                  "777" ;
        qb:dataSet                  ds:dataset-AE ;
        crnd-attribute:denominator  "_NULL_" ;
        crnd-attribute:unit         "_NULL_"^^xsd:string ;
        crnd-dimension:aedecod      code:aedecod-APPLICATION_SITE_DESQUAMATION ;
        crnd-dimension:aesoc        code:aesoc-GENERAL_DISORDERS_AND_ADMINISTRATION_SITE_CONDITIONS ;
        crnd-dimension:factor       code:factor-USUBJID ;
        crnd-dimension:procedure    code:procedure-countdistinct ;
        crnd-dimension:saffl        code:saffl-Y ;
        crnd-dimension:trta         code:trta-Xanomeline_Low_Dose ;
        crnd-measure:measure        "1"^^xsd:int .

ds:obs524  a                        qb:Observation ;
        rdfs:label                  "524" ;
        qb:dataSet                  ds:dataset-AE ;
        crnd-attribute:denominator  "_NULL_" ;
        crnd-attribute:unit         "_NULL_"^^xsd:string ;
        crnd-dimension:aedecod      code:aedecod-DIARRHOEA ;
        crnd-dimension:aesoc        code:aesoc-GASTROINTESTINAL_DISORDERS ;
        crnd-dimension:factor       code:factor-USUBJID ;
        crnd-dimension:procedure    code:procedure-countdistinct ;
        crnd-dimension:saffl        code:saffl-Y ;
        crnd-dimension:trta         code:trta-Placebo ;
        crnd-measure:measure        "9"^^xsd:int .

ds:obs54  a                         qb:Observation ;
        rdfs:label                  "54" ;
        qb:dataSet                  ds:dataset-AE ;
        crnd-attribute:denominator  "_NULL_" ;
        crnd-attribute:unit         "_NULL_"^^xsd:string ;
        crnd-dimension:aedecod      code:aedecod-_ALL_ ;
        crnd-dimension:aesoc        code:aesoc-IMMUNE_SYSTEM_DISORDERS ;
        crnd-dimension:factor       code:factor-quantity ;
        crnd-dimension:procedure    code:procedure-count ;
        crnd-dimension:saffl        code:saffl-Y ;
        crnd-dimension:trta         code:trta-Xanomeline_Low_Dose ;
        crnd-measure:measure        "2"^^xsd:int .

code:aedecod-RASH_MACULO-PAPULAR
        a                  code:Aedecod , skos:Concept ;
        rdfs:comment       "Coded values from data source. No reconciliation against another source"@en ;
        skos:inScheme      code:aedecod ;
        skos:prefLabel     "RASH MACULO-PAPULAR" ;
        skos:topConceptOf  code:aedecod .

code:aedecod-VISION_BLURRED
        a                  code:Aedecod , skos:Concept ;
        rdfs:comment       "Coded values from data source. No reconciliation against another source"@en ;
        skos:inScheme      code:aedecod ;
        skos:prefLabel     "VISION BLURRED" ;
        skos:topConceptOf  code:aedecod .

ds:obs279  a                        qb:Observation ;
        rdfs:label                  "279" ;
        qb:dataSet                  ds:dataset-AE ;
        crnd-attribute:denominator  "_NULL_" ;
        crnd-attribute:unit         "_NULL_"^^xsd:string ;
        crnd-dimension:aedecod      code:aedecod-APPLICATION_SITE_VESICLES ;
        crnd-dimension:aesoc        code:aesoc-GENERAL_DISORDERS_AND_ADMINISTRATION_SITE_CONDITIONS ;
        crnd-dimension:factor       code:factor-quantity ;
        crnd-dimension:procedure    code:procedure-count ;
        crnd-dimension:saffl        code:saffl-Y ;
        crnd-dimension:trta         code:trta-Xanomeline_High_Dose ;
        crnd-measure:measure        "6"^^xsd:int .

ds:obs570  a                        qb:Observation ;
        rdfs:label                  "570" ;
        qb:dataSet                  ds:dataset-AE ;
        crnd-attribute:denominator  "_NULL_" ;
        crnd-attribute:unit         "_NULL_"^^xsd:string ;
        crnd-dimension:aedecod      code:aedecod-DECREASED_APPETITE ;
        crnd-dimension:aesoc        code:aesoc-METABOLISM_AND_NUTRITION_DISORDERS ;
        crnd-dimension:factor       code:factor-USUBJID ;
        crnd-dimension:procedure    code:procedure-countdistinct ;
        crnd-dimension:saffl        code:saffl-Y ;
        crnd-dimension:trta         code:trta-Placebo ;
        crnd-measure:measure        "1"^^xsd:int .

ds:obs745  a                        qb:Observation ;
        rdfs:label                  "745" ;
        qb:dataSet                  ds:dataset-AE ;
        crnd-attribute:denominator  "_NULL_" ;
        crnd-attribute:unit         "_NULL_"^^xsd:string ;
        crnd-dimension:aedecod      code:aedecod-URTICARIA ;
        crnd-dimension:aesoc        code:aesoc-SKIN_AND_SUBCUTANEOUS_TISSUE_DISORDERS ;
        crnd-dimension:factor       code:factor-USUBJID ;
        crnd-dimension:procedure    code:procedure-countdistinct ;
        crnd-dimension:saffl        code:saffl-Y ;
        crnd-dimension:trta         code:trta-Xanomeline_High_Dose ;
        crnd-measure:measure        "1"^^xsd:int .

ds:obs22  a                         qb:Observation ;
        rdfs:label                  "22" ;
        qb:dataSet                  ds:dataset-AE ;
        crnd-attribute:denominator  "_NULL_" ;
        crnd-attribute:unit         "_NULL_"^^xsd:string ;
        crnd-dimension:aedecod      code:aedecod-_ALL_ ;
        crnd-dimension:aesoc        code:aesoc-RESPIRATORY__THORACIC_AND_MEDIASTINAL_DISORDERS ;
        crnd-dimension:factor       code:factor-quantity ;
        crnd-dimension:procedure    code:procedure-count ;
        crnd-dimension:saffl        code:saffl-Y ;
        crnd-dimension:trta         code:trta-Placebo ;
        crnd-measure:measure        "15"^^xsd:int .

ds:obs791  a                        qb:Observation ;
        rdfs:label                  "791" ;
        qb:dataSet                  ds:dataset-AE ;
        crnd-attribute:denominator  "_NULL_" ;
        crnd-attribute:unit         "_NULL_"^^xsd:string ;
        crnd-dimension:aedecod      code:aedecod-OEDEMA ;
        crnd-dimension:aesoc        code:aesoc-GENERAL_DISORDERS_AND_ADMINISTRATION_SITE_CONDITIONS ;
        crnd-dimension:factor       code:factor-USUBJID ;
        crnd-dimension:procedure    code:procedure-countdistinct ;
        crnd-dimension:saffl        code:saffl-Y ;
        crnd-dimension:trta         code:trta-Xanomeline_Low_Dose ;
        crnd-measure:measure        "2"^^xsd:int .

ds:obs247  a                        qb:Observation ;
        rdfs:label                  "247" ;
        qb:dataSet                  ds:dataset-AE ;
        crnd-attribute:denominator  "_NULL_" ;
        crnd-attribute:unit         "_NULL_"^^xsd:string ;
        crnd-dimension:aedecod      code:aedecod-HYPOTENSION ;
        crnd-dimension:aesoc        code:aesoc-VASCULAR_DISORDERS ;
        crnd-dimension:factor       code:factor-quantity ;
        crnd-dimension:procedure    code:procedure-count ;
        crnd-dimension:saffl        code:saffl-Y ;
        crnd-dimension:trta         code:trta-Placebo ;
        crnd-measure:measure        "3"^^xsd:int .

code:aedecod-CHILLS  a     code:Aedecod , skos:Concept ;
        rdfs:comment       "Coded values from data source. No reconciliation against another source"@en ;
        skos:inScheme      code:aedecod ;
        skos:prefLabel     "CHILLS" ;
        skos:topConceptOf  code:aedecod .

ds:obs713  a                        qb:Observation ;
        rdfs:label                  "713" ;
        qb:dataSet                  ds:dataset-AE ;
        crnd-attribute:denominator  "_NULL_" ;
        crnd-attribute:unit         "_NULL_"^^xsd:string ;
        crnd-dimension:aedecod      code:aedecod-HALLUCINATION ;
        crnd-dimension:aesoc        code:aesoc-PSYCHIATRIC_DISORDERS ;
        crnd-dimension:factor       code:factor-USUBJID ;
        crnd-dimension:procedure    code:procedure-countdistinct ;
        crnd-dimension:saffl        code:saffl-Y ;
        crnd-dimension:trta         code:trta-Xanomeline_High_Dose ;
        crnd-measure:measure        "1"^^xsd:int .

code:aedecod-CONFUSIONAL_STATE
        a                  code:Aedecod , skos:Concept ;
        rdfs:comment       "Coded values from data source. No reconciliation against another source"@en ;
        skos:inScheme      code:aedecod ;
        skos:prefLabel     "CONFUSIONAL STATE" ;
        skos:topConceptOf  code:aedecod .

ds:obs293  a                        qb:Observation ;
        rdfs:label                  "293" ;
        qb:dataSet                  ds:dataset-AE ;
        crnd-attribute:denominator  "_NULL_" ;
        crnd-attribute:unit         "_NULL_"^^xsd:string ;
        crnd-dimension:aedecod      code:aedecod-HORDEOLUM ;
        crnd-dimension:aesoc        code:aesoc-INFECTIONS_AND_INFESTATIONS ;
        crnd-dimension:factor       code:factor-quantity ;
        crnd-dimension:procedure    code:procedure-count ;
        crnd-dimension:saffl        code:saffl-Y ;
        crnd-dimension:trta         code:trta-Xanomeline_High_Dose ;
        crnd-measure:measure        "1"^^xsd:int .

ds:obs468  a                        qb:Observation ;
        rdfs:label                  "468" ;
        qb:dataSet                  ds:dataset-AE ;
        crnd-attribute:denominator  "_NULL_" ;
        crnd-attribute:unit         "_NULL_"^^xsd:string ;
        crnd-dimension:aedecod      code:aedecod-TRANSIENT_ISCHAEMIC_ATTACK ;
        crnd-dimension:aesoc        code:aesoc-NERVOUS_SYSTEM_DISORDERS ;
        crnd-dimension:factor       code:factor-quantity ;
        crnd-dimension:procedure    code:procedure-count ;
        crnd-dimension:saffl        code:saffl-Y ;
        crnd-dimension:trta         code:trta-Xanomeline_Low_Dose ;
        crnd-measure:measure        "3"^^xsd:int .

ds:obs215  a                        qb:Observation ;
        rdfs:label                  "215" ;
        qb:dataSet                  ds:dataset-AE ;
        crnd-attribute:denominator  "_NULL_" ;
        crnd-attribute:unit         "_NULL_"^^xsd:string ;
        crnd-dimension:aedecod      code:aedecod-COMPLETED_SUICIDE ;
        crnd-dimension:aesoc        code:aesoc-PSYCHIATRIC_DISORDERS ;
        crnd-dimension:factor       code:factor-quantity ;
        crnd-dimension:procedure    code:procedure-count ;
        crnd-dimension:saffl        code:saffl-Y ;
        crnd-dimension:trta         code:trta-Placebo ;
        crnd-measure:measure        "1"^^xsd:int .

code:aedecod-URTICARIA
        a                  code:Aedecod , skos:Concept ;
        rdfs:comment       "Coded values from data source. No reconciliation against another source"@en ;
        skos:inScheme      code:aedecod ;
        skos:prefLabel     "URTICARIA" ;
        skos:topConceptOf  code:aedecod .

ds:obs261  a                        qb:Observation ;
        rdfs:label                  "261" ;
        qb:dataSet                  ds:dataset-AE ;
        crnd-attribute:denominator  "_NULL_" ;
        crnd-attribute:unit         "_NULL_"^^xsd:string ;
        crnd-dimension:aedecod      code:aedecod-ABDOMINAL_PAIN ;
        crnd-dimension:aesoc        code:aesoc-GASTROINTESTINAL_DISORDERS ;
        crnd-dimension:factor       code:factor-quantity ;
        crnd-dimension:procedure    code:procedure-count ;
        crnd-dimension:saffl        code:saffl-Y ;
        crnd-dimension:trta         code:trta-Xanomeline_High_Dose ;
        crnd-measure:measure        "2"^^xsd:int .

ds:obs689  a                        qb:Observation ;
        rdfs:label                  "689" ;
        qb:dataSet                  ds:dataset-AE ;
        crnd-attribute:denominator  "_NULL_" ;
        crnd-attribute:unit         "_NULL_"^^xsd:string ;
        crnd-dimension:aedecod      code:aedecod-BACK_PAIN ;
        crnd-dimension:aesoc        code:aesoc-MUSCULOSKELETAL_AND_CONNECTIVE_TISSUE_DISORDERS ;
        crnd-dimension:factor       code:factor-USUBJID ;
        crnd-dimension:procedure    code:procedure-countdistinct ;
        crnd-dimension:saffl        code:saffl-Y ;
        crnd-dimension:trta         code:trta-Xanomeline_High_Dose ;
        crnd-measure:measure        "3"^^xsd:int .

ds:obs436  a                        qb:Observation ;
        rdfs:label                  "436" ;
        qb:dataSet                  ds:dataset-AE ;
        crnd-attribute:denominator  "_NULL_" ;
        crnd-attribute:unit         "_NULL_"^^xsd:string ;
        crnd-dimension:aedecod      code:aedecod-FALL ;
        crnd-dimension:aesoc        code:aesoc-INJURY__POISONING_AND_PROCEDURAL_COMPLICATIONS ;
        crnd-dimension:factor       code:factor-quantity ;
        crnd-dimension:procedure    code:procedure-count ;
        crnd-dimension:saffl        code:saffl-Y ;
        crnd-dimension:trta         code:trta-Xanomeline_Low_Dose ;
        crnd-measure:measure        "2"^^xsd:int .

code:aedecod-LIBIDO_DECREASED
        a                  code:Aedecod , skos:Concept ;
        rdfs:comment       "Coded values from data source. No reconciliation against another source"@en ;
        skos:inScheme      code:aedecod ;
        skos:prefLabel     "LIBIDO DECREASED" ;
        skos:topConceptOf  code:aedecod .

code:aedecod-HYPERSENSITIVITY
        a                  code:Aedecod , skos:Concept ;
        rdfs:comment       "Coded values from data source. No reconciliation against another source"@en ;
        skos:inScheme      code:aedecod ;
        skos:prefLabel     "HYPERSENSITIVITY" ;
        skos:topConceptOf  code:aedecod .

code:Aesoc  a            rdfs:Class , owl:Class ;
        rdfs:comment     "Specifies the aesoc for each observation"@en ;
        rdfs:label       "Class for code list: aesoc"@en ;
        rdfs:seeAlso     code:aesoc ;
        rdfs:subClassOf  skos:Concept .

ds:obs482  a                        qb:Observation ;
        rdfs:label                  "482" ;
        qb:dataSet                  ds:dataset-AE ;
        crnd-attribute:denominator  "_NULL_" ;
        crnd-attribute:unit         "_NULL_"^^xsd:string ;
        crnd-dimension:aedecod      code:aedecod-EPISTAXIS ;
        crnd-dimension:aesoc        code:aesoc-RESPIRATORY__THORACIC_AND_MEDIASTINAL_DISORDERS ;
        crnd-dimension:factor       code:factor-quantity ;
        crnd-dimension:procedure    code:procedure-count ;
        crnd-dimension:saffl        code:saffl-Y ;
        crnd-dimension:trta         code:trta-Xanomeline_Low_Dose ;
        crnd-measure:measure        "1"^^xsd:int .

ds:obs657  a                        qb:Observation ;
        rdfs:label                  "657" ;
        qb:dataSet                  ds:dataset-AE ;
        crnd-attribute:denominator  "_NULL_" ;
        crnd-attribute:unit         "_NULL_"^^xsd:string ;
        crnd-dimension:aedecod      code:aedecod-FATIGUE ;
        crnd-dimension:aesoc        code:aesoc-GENERAL_DISORDERS_AND_ADMINISTRATION_SITE_CONDITIONS ;
        crnd-dimension:factor       code:factor-USUBJID ;
        crnd-dimension:procedure    code:procedure-countdistinct ;
        crnd-dimension:saffl        code:saffl-Y ;
        crnd-dimension:trta         code:trta-Xanomeline_High_Dose ;
        crnd-measure:measure        "5"^^xsd:int .

code:aedecod-APPLICATION_SITE_URTICARIA
        a                  code:Aedecod , skos:Concept ;
        rdfs:comment       "Coded values from data source. No reconciliation against another source"@en ;
        skos:inScheme      code:aedecod ;
        skos:prefLabel     "APPLICATION SITE URTICARIA" ;
        skos:topConceptOf  code:aedecod .

ds:obs404  a                        qb:Observation ;
        rdfs:label                  "404" ;
        qb:dataSet                  ds:dataset-AE ;
        crnd-attribute:denominator  "_NULL_" ;
        crnd-attribute:unit         "_NULL_"^^xsd:string ;
        crnd-dimension:aedecod      code:aedecod-APPLICATION_SITE_DESQUAMATION ;
        crnd-dimension:aesoc        code:aesoc-GENERAL_DISORDERS_AND_ADMINISTRATION_SITE_CONDITIONS ;
        crnd-dimension:factor       code:factor-quantity ;
        crnd-dimension:procedure    code:procedure-count ;
        crnd-dimension:saffl        code:saffl-Y ;
        crnd-dimension:trta         code:trta-Xanomeline_Low_Dose ;
        crnd-measure:measure        "1"^^xsd:int .

code:aedecod-CONTUSION
        a                  code:Aedecod , skos:Concept ;
        rdfs:comment       "Coded values from data source. No reconciliation against another source"@en ;
        skos:inScheme      code:aedecod ;
        skos:prefLabel     "CONTUSION" ;
        skos:topConceptOf  code:aedecod .

ds:obs159  a                        qb:Observation ;
        rdfs:label                  "159" ;
        qb:dataSet                  ds:dataset-AE ;
        crnd-attribute:denominator  "_NULL_" ;
        crnd-attribute:unit         "_NULL_"^^xsd:string ;
        crnd-dimension:aedecod      code:aedecod-APPLICATION_SITE_DERMATITIS ;
        crnd-dimension:aesoc        code:aesoc-GENERAL_DISORDERS_AND_ADMINISTRATION_SITE_CONDITIONS ;
        crnd-dimension:factor       code:factor-quantity ;
        crnd-dimension:procedure    code:procedure-count ;
        crnd-dimension:saffl        code:saffl-Y ;
        crnd-dimension:trta         code:trta-Placebo ;
        crnd-measure:measure        "9"^^xsd:int .

ds:obs450  a                        qb:Observation ;
        rdfs:label                  "450" ;
        qb:dataSet                  ds:dataset-AE ;
        crnd-attribute:denominator  "_NULL_" ;
        crnd-attribute:unit         "_NULL_"^^xsd:string ;
        crnd-dimension:aedecod      code:aedecod-ARTHRALGIA ;
        crnd-dimension:aesoc        code:aesoc-MUSCULOSKELETAL_AND_CONNECTIVE_TISSUE_DISORDERS ;
        crnd-dimension:factor       code:factor-quantity ;
        crnd-dimension:procedure    code:procedure-count ;
        crnd-dimension:saffl        code:saffl-Y ;
        crnd-dimension:trta         code:trta-Xanomeline_Low_Dose ;
        crnd-measure:measure        "4"^^xsd:int .

ds:obs625  a                        qb:Observation ;
        rdfs:label                  "625" ;
        qb:dataSet                  ds:dataset-AE ;
        crnd-attribute:denominator  "_NULL_" ;
        crnd-attribute:unit         "_NULL_"^^xsd:string ;
        crnd-dimension:aedecod      code:aedecod-CARDIAC_DISORDER ;
        crnd-dimension:aesoc        code:aesoc-CARDIAC_DISORDERS ;
        crnd-dimension:factor       code:factor-USUBJID ;
        crnd-dimension:procedure    code:procedure-countdistinct ;
        crnd-dimension:saffl        code:saffl-Y ;
        crnd-dimension:trta         code:trta-Xanomeline_High_Dose ;
        crnd-measure:measure        "1"^^xsd:int .

ds:obs671  a                        qb:Observation ;
        rdfs:label                  "671" ;
        qb:dataSet                  ds:dataset-AE ;
        crnd-attribute:denominator  "_NULL_" ;
        crnd-attribute:unit         "_NULL_"^^xsd:string ;
        crnd-dimension:aedecod      code:aedecod-UPPER_RESPIRATORY_TRACT_INFECTION ;
        crnd-dimension:aesoc        code:aesoc-INFECTIONS_AND_INFESTATIONS ;
        crnd-dimension:factor       code:factor-USUBJID ;
        crnd-dimension:procedure    code:procedure-countdistinct ;
        crnd-dimension:saffl        code:saffl-Y ;
        crnd-dimension:trta         code:trta-Xanomeline_High_Dose ;
        crnd-measure:measure        "3"^^xsd:int .

code:procedure-_ALL_  a    code:Procedure , skos:Concept ;
        rdfs:comment       "NON-CDISC: Represents all codelist categories."@en ;
        skos:inScheme      code:procedure ;
        skos:prefLabel     "_ALL_" ;
        skos:topConceptOf  code:procedure .

ds:obs127  a                        qb:Observation ;
        rdfs:label                  "127" ;
        qb:dataSet                  ds:dataset-AE ;
        crnd-attribute:denominator  "_NULL_" ;
        crnd-attribute:unit         "_NULL_"^^xsd:string ;
        crnd-dimension:aedecod      code:aedecod-_ALL_ ;
        crnd-dimension:aesoc        code:aesoc-SURGICAL_AND_MEDICAL_PROCEDURES ;
        crnd-dimension:factor       code:factor-USUBJID ;
        crnd-dimension:procedure    code:procedure-countdistinct ;
        crnd-dimension:saffl        code:saffl-Y ;
        crnd-dimension:trta         code:trta-Xanomeline_Low_Dose ;
        crnd-measure:measure        "1"^^xsd:int .

code:Saffl  a            rdfs:Class , owl:Class ;
        rdfs:comment     "Specifies the saffl for each observation"@en ;
        rdfs:label       "Class for code list: saffl"@en ;
        rdfs:seeAlso     code:saffl ;
        rdfs:subClassOf  skos:Concept .

ds:obs846  a                        qb:Observation ;
        rdfs:label                  "846" ;
        qb:dataSet                  ds:dataset-AE ;
        crnd-attribute:denominator  "_NULL_" ;
        crnd-attribute:unit         "_NULL_"^^xsd:string ;
        crnd-dimension:aedecod      code:aedecod-IRRITABILITY ;
        crnd-dimension:aesoc        code:aesoc-PSYCHIATRIC_DISORDERS ;
        crnd-dimension:factor       code:factor-USUBJID ;
        crnd-dimension:procedure    code:procedure-countdistinct ;
        crnd-dimension:saffl        code:saffl-Y ;
        crnd-dimension:trta         code:trta-Xanomeline_Low_Dose ;
        crnd-measure:measure        "1"^^xsd:int .

code:aedecod-BUNDLE_BRANCH_BLOCK_LEFT
        a                  code:Aedecod , skos:Concept ;
        rdfs:comment       "Coded values from data source. No reconciliation against another source"@en ;
        skos:inScheme      code:aedecod ;
        skos:prefLabel     "BUNDLE BRANCH BLOCK LEFT" ;
        skos:topConceptOf  code:aedecod .

ds:obs173  a                        qb:Observation ;
        rdfs:label                  "173" ;
        qb:dataSet                  ds:dataset-AE ;
        crnd-attribute:denominator  "_NULL_" ;
        crnd-attribute:unit         "_NULL_"^^xsd:string ;
        crnd-dimension:aedecod      code:aedecod-CERVICITIS ;
        crnd-dimension:aesoc        code:aesoc-INFECTIONS_AND_INFESTATIONS ;
        crnd-dimension:factor       code:factor-quantity ;
        crnd-dimension:procedure    code:procedure-count ;
        crnd-dimension:saffl        code:saffl-Y ;
        crnd-dimension:trta         code:trta-Placebo ;
        crnd-measure:measure        "2"^^xsd:int .

ds:obs348  a                        qb:Observation ;
        rdfs:label                  "348" ;
        qb:dataSet                  ds:dataset-AE ;
        crnd-attribute:denominator  "_NULL_" ;
        crnd-attribute:unit         "_NULL_"^^xsd:string ;
        crnd-dimension:aedecod      code:aedecod-NEPHROLITHIASIS ;
        crnd-dimension:aesoc        code:aesoc-RENAL_AND_URINARY_DISORDERS ;
        crnd-dimension:factor       code:factor-quantity ;
        crnd-dimension:procedure    code:procedure-count ;
        crnd-dimension:saffl        code:saffl-Y ;
        crnd-dimension:trta         code:trta-Xanomeline_High_Dose ;
        crnd-measure:measure        "1"^^xsd:int .

code:aedecod-TINNITUS
        a                  code:Aedecod , skos:Concept ;
        rdfs:comment       "Coded values from data source. No reconciliation against another source"@en ;
        skos:inScheme      code:aedecod ;
        skos:prefLabel     "TINNITUS" ;
        skos:topConceptOf  code:aedecod .

ds:obs814  a                        qb:Observation ;
        rdfs:label                  "814" ;
        qb:dataSet                  ds:dataset-AE ;
        crnd-attribute:denominator  "_NULL_" ;
        crnd-attribute:unit         "_NULL_"^^xsd:string ;
        crnd-dimension:aedecod      code:aedecod-BODY_TEMPERATURE_INCREASED ;
        crnd-dimension:aesoc        code:aesoc-INVESTIGATIONS ;
        crnd-dimension:factor       code:factor-USUBJID ;
        crnd-dimension:procedure    code:procedure-countdistinct ;
        crnd-dimension:saffl        code:saffl-Y ;
        crnd-dimension:trta         code:trta-Xanomeline_Low_Dose ;
        crnd-measure:measure        "1"^^xsd:int .

ds:obs394  a                        qb:Observation ;
        rdfs:label                  "394" ;
        qb:dataSet                  ds:dataset-AE ;
        crnd-attribute:denominator  "_NULL_" ;
        crnd-attribute:unit         "_NULL_"^^xsd:string ;
        crnd-dimension:aedecod      code:aedecod-VISION_BLURRED ;
        crnd-dimension:aesoc        code:aesoc-EYE_DISORDERS ;
        crnd-dimension:factor       code:factor-quantity ;
        crnd-dimension:procedure    code:procedure-count ;
        crnd-dimension:saffl        code:saffl-Y ;
        crnd-dimension:trta         code:trta-Xanomeline_Low_Dose ;
        crnd-measure:measure        "1"^^xsd:int .

code:aedecod-GLOSSITIS
        a                  code:Aedecod , skos:Concept ;
        rdfs:comment       "Coded values from data source. No reconciliation against another source"@en ;
        skos:inScheme      code:aedecod ;
        skos:prefLabel     "GLOSSITIS" ;
        skos:topConceptOf  code:aedecod .

ds:obs6  a                          qb:Observation ;
        rdfs:label                  "6" ;
        qb:dataSet                  ds:dataset-AE ;
        crnd-attribute:denominator  "_NULL_" ;
        crnd-attribute:unit         "_NULL_"^^xsd:string ;
        crnd-dimension:aedecod      code:aedecod-_ALL_ ;
        crnd-dimension:aesoc        code:aesoc-_ALL_ ;
        crnd-dimension:factor       code:factor-USUBJID ;
        crnd-dimension:procedure    code:procedure-countdistinct ;
        crnd-dimension:saffl        code:saffl-Y ;
        crnd-dimension:trta         code:trta-Xanomeline_Low_Dose ;
        crnd-measure:measure        "77"^^xsd:int .

ds:obs860  a                        qb:Observation ;
        rdfs:label                  "860" ;
        qb:dataSet                  ds:dataset-AE ;
        crnd-attribute:denominator  "_NULL_" ;
        crnd-attribute:unit         "_NULL_"^^xsd:string ;
        crnd-dimension:aedecod      code:aedecod-DERMATITIS_CONTACT ;
        crnd-dimension:aesoc        code:aesoc-SKIN_AND_SUBCUTANEOUS_TISSUE_DISORDERS ;
        crnd-dimension:factor       code:factor-USUBJID ;
        crnd-dimension:procedure    code:procedure-countdistinct ;
        crnd-dimension:saffl        code:saffl-Y ;
        crnd-dimension:trta         code:trta-Xanomeline_Low_Dose ;
        crnd-measure:measure        "1"^^xsd:int .

ds:obs141  a                        qb:Observation ;
        rdfs:label                  "141" ;
        qb:dataSet                  ds:dataset-AE ;
        crnd-attribute:denominator  "_NULL_" ;
        crnd-attribute:unit         "_NULL_"^^xsd:string ;
        crnd-dimension:aedecod      code:aedecod-TACHYCARDIA ;
        crnd-dimension:aesoc        code:aesoc-CARDIAC_DISORDERS ;
        crnd-dimension:factor       code:factor-quantity ;
        crnd-dimension:procedure    code:procedure-count ;
        crnd-dimension:saffl        code:saffl-Y ;
        crnd-dimension:trta         code:trta-Placebo ;
        crnd-measure:measure        "2"^^xsd:int .

ds:obs569  a                        qb:Observation ;
        rdfs:label                  "569" ;
        qb:dataSet                  ds:dataset-AE ;
        crnd-attribute:denominator  "_NULL_" ;
        crnd-attribute:unit         "_NULL_"^^xsd:string ;
        crnd-dimension:aedecod      code:aedecod-HEART_RATE_IRREGULAR ;
        crnd-dimension:aesoc        code:aesoc-INVESTIGATIONS ;
        crnd-dimension:factor       code:factor-USUBJID ;
        crnd-dimension:procedure    code:procedure-countdistinct ;
        crnd-dimension:saffl        code:saffl-Y ;
        crnd-dimension:trta         code:trta-Placebo ;
        crnd-measure:measure        "1"^^xsd:int .

ds:obs316  a                        qb:Observation ;
        rdfs:label                  "316" ;
        qb:dataSet                  ds:dataset-AE ;
        crnd-attribute:denominator  "_NULL_" ;
        crnd-attribute:unit         "_NULL_"^^xsd:string ;
        crnd-dimension:aedecod      code:aedecod-BACK_PAIN ;
        crnd-dimension:aesoc        code:aesoc-MUSCULOSKELETAL_AND_CONNECTIVE_TISSUE_DISORDERS ;
        crnd-dimension:factor       code:factor-quantity ;
        crnd-dimension:procedure    code:procedure-count ;
        crnd-dimension:saffl        code:saffl-Y ;
        crnd-dimension:trta         code:trta-Xanomeline_High_Dose ;
        crnd-measure:measure        "4"^^xsd:int .

ds:obs99  a                         qb:Observation ;
        rdfs:label                  "99" ;
        qb:dataSet                  ds:dataset-AE ;
        crnd-attribute:denominator  "_NULL_" ;
        crnd-attribute:unit         "_NULL_"^^xsd:string ;
        crnd-dimension:aedecod      code:aedecod-_ALL_ ;
        crnd-dimension:aesoc        code:aesoc-NEOPLASMS_BENIGN__MALIGNANT_AND_UNSPECIFIED__INCL_CYSTS_AND_POLYPS_ ;
        crnd-dimension:factor       code:factor-USUBJID ;
        crnd-dimension:procedure    code:procedure-countdistinct ;
        crnd-dimension:saffl        code:saffl-Y ;
        crnd-dimension:trta         code:trta-Xanomeline_High_Dose ;
        crnd-measure:measure        "1"^^xsd:int .

code:Factor  a           rdfs:Class , owl:Class ;
        rdfs:comment     "Specifies the factor for each observation"@en ;
        rdfs:label       "Class for code list: factor"@en ;
        rdfs:seeAlso     code:factor ;
        rdfs:subClassOf  skos:Concept .

code:aedecod-DYSPHAGIA
        a                  code:Aedecod , skos:Concept ;
        rdfs:comment       "Coded values from data source. No reconciliation against another source"@en ;
        skos:inScheme      code:aedecod ;
        skos:prefLabel     "DYSPHAGIA" ;
        skos:topConceptOf  code:aedecod .

ds:obs362  a                        qb:Observation ;
        rdfs:label                  "362" ;
        qb:dataSet                  ds:dataset-AE ;
        crnd-attribute:denominator  "_NULL_" ;
        crnd-attribute:unit         "_NULL_"^^xsd:string ;
        crnd-dimension:aedecod      code:aedecod-ERYTHEMA ;
        crnd-dimension:aesoc        code:aesoc-SKIN_AND_SUBCUTANEOUS_TISSUE_DISORDERS ;
        crnd-dimension:factor       code:factor-quantity ;
        crnd-dimension:procedure    code:procedure-count ;
        crnd-dimension:saffl        code:saffl-Y ;
        crnd-dimension:trta         code:trta-Xanomeline_High_Dose ;
        crnd-measure:measure        "22"^^xsd:int .

ds:obs537  a                        qb:Observation ;
        rdfs:label                  "537" ;
        qb:dataSet                  ds:dataset-AE ;
        crnd-attribute:denominator  "_NULL_" ;
        crnd-attribute:unit         "_NULL_"^^xsd:string ;
        crnd-dimension:aedecod      code:aedecod-APPLICATION_SITE_REACTION ;
        crnd-dimension:aesoc        code:aesoc-GENERAL_DISORDERS_AND_ADMINISTRATION_SITE_CONDITIONS ;
        crnd-dimension:factor       code:factor-USUBJID ;
        crnd-dimension:procedure    code:procedure-countdistinct ;
        crnd-dimension:saffl        code:saffl-Y ;
        crnd-dimension:trta         code:trta-Placebo ;
        crnd-measure:measure        "1"^^xsd:int .

ds:obs67  a                         qb:Observation ;
        rdfs:label                  "67" ;
        qb:dataSet                  ds:dataset-AE ;
        crnd-attribute:denominator  "_NULL_" ;
        crnd-attribute:unit         "_NULL_"^^xsd:string ;
        crnd-dimension:aedecod      code:aedecod-_ALL_ ;
        crnd-dimension:aesoc        code:aesoc-VASCULAR_DISORDERS ;
        crnd-dimension:factor       code:factor-quantity ;
        crnd-dimension:procedure    code:procedure-count ;
        crnd-dimension:saffl        code:saffl-Y ;
        crnd-dimension:trta         code:trta-Xanomeline_Low_Dose ;
        crnd-measure:measure        "3"^^xsd:int .

ds:obs583  a                        qb:Observation ;
        rdfs:label                  "583" ;
        qb:dataSet                  ds:dataset-AE ;
        crnd-attribute:denominator  "_NULL_" ;
        crnd-attribute:unit         "_NULL_"^^xsd:string ;
        crnd-dimension:aedecod      code:aedecod-PARKINSON_S_DISEASE ;
        crnd-dimension:aesoc        code:aesoc-NERVOUS_SYSTEM_DISORDERS ;
        crnd-dimension:factor       code:factor-USUBJID ;
        crnd-dimension:procedure    code:procedure-countdistinct ;
        crnd-dimension:saffl        code:saffl-Y ;
        crnd-dimension:trta         code:trta-Placebo ;
        crnd-measure:measure        "1"^^xsd:int .

code:aedecod-SKIN_IRRITATION
        a                  code:Aedecod , skos:Concept ;
        rdfs:comment       "Coded values from data source. No reconciliation against another source"@en ;
        skos:inScheme      code:aedecod ;
        skos:prefLabel     "SKIN IRRITATION" ;
        skos:topConceptOf  code:aedecod .

ds:obs330  a                        qb:Observation ;
        rdfs:label                  "330" ;
        qb:dataSet                  ds:dataset-AE ;
        crnd-attribute:denominator  "_NULL_" ;
        crnd-attribute:unit         "_NULL_"^^xsd:string ;
        crnd-dimension:aedecod      code:aedecod-PARTIAL_SEIZURES_WITH_SECONDARY_GENERALISATION ;
        crnd-dimension:aesoc        code:aesoc-NERVOUS_SYSTEM_DISORDERS ;
        crnd-dimension:factor       code:factor-quantity ;
        crnd-dimension:procedure    code:procedure-count ;
        crnd-dimension:saffl        code:saffl-Y ;
        crnd-dimension:trta         code:trta-Xanomeline_High_Dose ;
        crnd-measure:measure        "1"^^xsd:int .

ds:obs758  a                        qb:Observation ;
        rdfs:label                  "758" ;
        qb:dataSet                  ds:dataset-AE ;
        crnd-attribute:denominator  "_NULL_" ;
        crnd-attribute:unit         "_NULL_"^^xsd:string ;
        crnd-dimension:aedecod      code:aedecod-SUPRAVENTRICULAR_EXTRASYSTOLES ;
        crnd-dimension:aesoc        code:aesoc-CARDIAC_DISORDERS ;
        crnd-dimension:factor       code:factor-USUBJID ;
        crnd-dimension:procedure    code:procedure-countdistinct ;
        crnd-dimension:saffl        code:saffl-Y ;
        crnd-dimension:trta         code:trta-Xanomeline_Low_Dose ;
        crnd-measure:measure        "1"^^xsd:int .

ds:obs505  a                        qb:Observation ;
        rdfs:label                  "505" ;
        qb:dataSet                  ds:dataset-AE ;
        crnd-attribute:denominator  "_NULL_" ;
        crnd-attribute:unit         "_NULL_"^^xsd:string ;
        crnd-dimension:aedecod      code:aedecod-ATRIOVENTRICULAR_BLOCK_SECOND_DEGREE ;
        crnd-dimension:aesoc        code:aesoc-CARDIAC_DISORDERS ;
        crnd-dimension:factor       code:factor-USUBJID ;
        crnd-dimension:procedure    code:procedure-countdistinct ;
        crnd-dimension:saffl        code:saffl-Y ;
        crnd-dimension:trta         code:trta-Placebo ;
        crnd-measure:measure        "2"^^xsd:int .

ds:obs35  a                         qb:Observation ;
        rdfs:label                  "35" ;
        qb:dataSet                  ds:dataset-AE ;
        crnd-attribute:denominator  "_NULL_" ;
        crnd-attribute:unit         "_NULL_"^^xsd:string ;
        crnd-dimension:aedecod      code:aedecod-_ALL_ ;
        crnd-dimension:aesoc        code:aesoc-INVESTIGATIONS ;
        crnd-dimension:factor       code:factor-quantity ;
        crnd-dimension:procedure    code:procedure-count ;
        crnd-dimension:saffl        code:saffl-Y ;
        crnd-dimension:trta         code:trta-Xanomeline_High_Dose ;
        crnd-measure:measure        "8"^^xsd:int .

ds:obs551  a                        qb:Observation ;
        rdfs:label                  "551" ;
        qb:dataSet                  ds:dataset-AE ;
        crnd-attribute:denominator  "_NULL_" ;
        crnd-attribute:unit         "_NULL_"^^xsd:string ;
        crnd-dimension:aedecod      code:aedecod-LOCALISED_INFECTION ;
        crnd-dimension:aesoc        code:aesoc-INFECTIONS_AND_INFESTATIONS ;
        crnd-dimension:factor       code:factor-USUBJID ;
        crnd-dimension:procedure    code:procedure-countdistinct ;
        crnd-dimension:saffl        code:saffl-Y ;
        crnd-dimension:trta         code:trta-Placebo ;
        crnd-measure:measure        "1"^^xsd:int .

ds:obs726  a                        qb:Observation ;
        rdfs:label                  "726" ;
        qb:dataSet                  ds:dataset-AE ;
        crnd-attribute:denominator  "_NULL_" ;
        crnd-attribute:unit         "_NULL_"^^xsd:string ;
        crnd-dimension:aedecod      code:aedecod-EPISTAXIS ;
        crnd-dimension:aesoc        code:aesoc-RESPIRATORY__THORACIC_AND_MEDIASTINAL_DISORDERS ;
        crnd-dimension:factor       code:factor-USUBJID ;
        crnd-dimension:procedure    code:procedure-countdistinct ;
        crnd-dimension:saffl        code:saffl-Y ;
        crnd-dimension:trta         code:trta-Xanomeline_High_Dose ;
        crnd-measure:measure        "2"^^xsd:int .

ds:obs81  a                         qb:Observation ;
        rdfs:label                  "81" ;
        qb:dataSet                  ds:dataset-AE ;
        crnd-attribute:denominator  "_NULL_" ;
        crnd-attribute:unit         "_NULL_"^^xsd:string ;
        crnd-dimension:aedecod      code:aedecod-_ALL_ ;
        crnd-dimension:aesoc        code:aesoc-RENAL_AND_URINARY_DISORDERS ;
        crnd-dimension:factor       code:factor-USUBJID ;
        crnd-dimension:procedure    code:procedure-countdistinct ;
        crnd-dimension:saffl        code:saffl-Y ;
        crnd-dimension:trta         code:trta-Placebo ;
        crnd-measure:measure        "4"^^xsd:int .

code:aedecod-DECREASED_APPETITE
        a                  code:Aedecod , skos:Concept ;
        rdfs:comment       "Coded values from data source. No reconciliation against another source"@en ;
        skos:inScheme      code:aedecod ;
        skos:prefLabel     "DECREASED APPETITE" ;
        skos:topConceptOf  code:aedecod .

ds:obs772  a                        qb:Observation ;
        rdfs:label                  "772" ;
        qb:dataSet                  ds:dataset-AE ;
        crnd-attribute:denominator  "_NULL_" ;
        crnd-attribute:unit         "_NULL_"^^xsd:string ;
        crnd-dimension:aedecod      code:aedecod-NAUSEA ;
        crnd-dimension:aesoc        code:aesoc-GASTROINTESTINAL_DISORDERS ;
        crnd-dimension:factor       code:factor-USUBJID ;
        crnd-dimension:procedure    code:procedure-countdistinct ;
        crnd-dimension:saffl        code:saffl-Y ;
        crnd-dimension:trta         code:trta-Xanomeline_Low_Dose ;
        crnd-measure:measure        "3"^^xsd:int .

ds:obs228  a                        qb:Observation ;
        rdfs:label                  "228" ;
        qb:dataSet                  ds:dataset-AE ;
        crnd-attribute:denominator  "_NULL_" ;
        crnd-attribute:unit         "_NULL_"^^xsd:string ;
        crnd-dimension:aedecod      code:aedecod-DYSPNOEA ;
        crnd-dimension:aesoc        code:aesoc-RESPIRATORY__THORACIC_AND_MEDIASTINAL_DISORDERS ;
        crnd-dimension:factor       code:factor-quantity ;
        crnd-dimension:procedure    code:procedure-count ;
        crnd-dimension:saffl        code:saffl-Y ;
        crnd-dimension:trta         code:trta-Placebo ;
        crnd-measure:measure        "1"^^xsd:int .

ds:obs274  a                        qb:Observation ;
        rdfs:label                  "274" ;
        qb:dataSet                  ds:dataset-AE ;
        crnd-attribute:denominator  "_NULL_" ;
        crnd-attribute:unit         "_NULL_"^^xsd:string ;
        crnd-dimension:aedecod      code:aedecod-APPLICATION_SITE_PERSPIRATION ;
        crnd-dimension:aesoc        code:aesoc-GENERAL_DISORDERS_AND_ADMINISTRATION_SITE_CONDITIONS ;
        crnd-dimension:factor       code:factor-quantity ;
        crnd-dimension:procedure    code:procedure-count ;
        crnd-dimension:saffl        code:saffl-Y ;
        crnd-dimension:trta         code:trta-Xanomeline_High_Dose ;
        crnd-measure:measure        "3"^^xsd:int .

ds:obs449  a                        qb:Observation ;
        rdfs:label                  "449" ;
        qb:dataSet                  ds:dataset-AE ;
        crnd-attribute:denominator  "_NULL_" ;
        crnd-attribute:unit         "_NULL_"^^xsd:string ;
        crnd-dimension:aedecod      code:aedecod-FOOD_CRAVING ;
        crnd-dimension:aesoc        code:aesoc-METABOLISM_AND_NUTRITION_DISORDERS ;
        crnd-dimension:factor       code:factor-quantity ;
        crnd-dimension:procedure    code:procedure-count ;
        crnd-dimension:saffl        code:saffl-Y ;
        crnd-dimension:trta         code:trta-Xanomeline_Low_Dose ;
        crnd-measure:measure        "1"^^xsd:int .

ds:dataset-AE  a             qb:DataSet ;
        rdfs:comment         "Adverse event sample table"@en ;
        rdfs:label           "Adverse Events results data set"@en ;
        dct:description      "Cube with 6 dimensions and 1 measure (measure)"@en ;
        dct:title            "Adverse Event Analysis Results"^^xsd:string ;
        qb:structure         ds:dsd-AE ;
        pav:createdBy        "username or session name"^^xsd:string , "username or session name"^^xsd:string ;
        pav:createdOn        "2015-03-15T17:44:59-04:00"^^xsd:dateTime ;
        pav:createdWith      "R Version 3.1.2 Platform:x86_64-redhat-linux-gnu rrdfqbrnd0 package and dependencies" ;
        pav:version          "0.0.0" ;
        dcat:distribution    "DC-AE-R-V-0-5-2.TTL" ;
        prov:wasDerivedFrom  "ae.AR.csv" .

ds:obs740  a                        qb:Observation ;
        rdfs:label                  "740" ;
        qb:dataSet                  ds:dataset-AE ;
        crnd-attribute:denominator  "_NULL_" ;
        crnd-attribute:unit         "_NULL_"^^xsd:string ;
        crnd-dimension:aedecod      code:aedecod-RASH_MACULO-PAPULAR ;
        crnd-dimension:aesoc        code:aesoc-SKIN_AND_SUBCUTANEOUS_TISSUE_DISORDERS ;
        crnd-dimension:factor       code:factor-USUBJID ;
        crnd-dimension:procedure    code:procedure-countdistinct ;
        crnd-dimension:saffl        code:saffl-Y ;
        crnd-dimension:trta         code:trta-Xanomeline_High_Dose ;
        crnd-measure:measure        "1"^^xsd:int .

code:aedecod-FEELING_COLD
        a                  code:Aedecod , skos:Concept ;
        rdfs:comment       "Coded values from data source. No reconciliation against another source"@en ;
        skos:inScheme      code:aedecod ;
        skos:prefLabel     "FEELING COLD" ;
        skos:topConceptOf  code:aedecod .

ds:obs495  a                        qb:Observation ;
        rdfs:label                  "495" ;
        qb:dataSet                  ds:dataset-AE ;
        crnd-attribute:denominator  "_NULL_" ;
        crnd-attribute:unit         "_NULL_"^^xsd:string ;
        crnd-dimension:aedecod      code:aedecod-SKIN_EXFOLIATION ;
        crnd-dimension:aesoc        code:aesoc-SKIN_AND_SUBCUTANEOUS_TISSUE_DISORDERS ;
        crnd-dimension:factor       code:factor-quantity ;
        crnd-dimension:procedure    code:procedure-count ;
        crnd-dimension:saffl        code:saffl-Y ;
        crnd-dimension:trta         code:trta-Xanomeline_Low_Dose ;
        crnd-measure:measure        "2"^^xsd:int .

ds:obs242  a                        qb:Observation ;
        rdfs:label                  "242" ;
        qb:dataSet                  ds:dataset-AE ;
        crnd-attribute:denominator  "_NULL_" ;
        crnd-attribute:unit         "_NULL_"^^xsd:string ;
        crnd-dimension:aedecod      code:aedecod-SKIN_IRRITATION ;
        crnd-dimension:aesoc        code:aesoc-SKIN_AND_SUBCUTANEOUS_TISSUE_DISORDERS ;
        crnd-dimension:factor       code:factor-quantity ;
        crnd-dimension:procedure    code:procedure-count ;
        crnd-dimension:saffl        code:saffl-Y ;
        crnd-dimension:trta         code:trta-Placebo ;
        crnd-measure:measure        "4"^^xsd:int .

code:aedecod-VAGINAL_MYCOSIS
        a                  code:Aedecod , skos:Concept ;
        rdfs:comment       "Coded values from data source. No reconciliation against another source"@en ;
        skos:inScheme      code:aedecod ;
        skos:prefLabel     "VAGINAL MYCOSIS" ;
        skos:topConceptOf  code:aedecod .

ds:obs417  a                        qb:Observation ;
        rdfs:label                  "417" ;
        qb:dataSet                  ds:dataset-AE ;
        crnd-attribute:denominator  "_NULL_" ;
        crnd-attribute:unit         "_NULL_"^^xsd:string ;
        crnd-dimension:aedecod      code:aedecod-MALAISE ;
        crnd-dimension:aesoc        code:aesoc-GENERAL_DISORDERS_AND_ADMINISTRATION_SITE_CONDITIONS ;
        crnd-dimension:factor       code:factor-quantity ;
        crnd-dimension:procedure    code:procedure-count ;
        crnd-dimension:saffl        code:saffl-Y ;
        crnd-dimension:trta         code:trta-Xanomeline_Low_Dose ;
        crnd-measure:measure        "2"^^xsd:int .

code:aedecod-ATRIOVENTRICULAR_BLOCK_SECOND_DEGREE
        a                  code:Aedecod , skos:Concept ;
        rdfs:comment       "Coded values from data source. No reconciliation against another source"@en ;
        skos:inScheme      code:aedecod ;
        skos:prefLabel     "ATRIOVENTRICULAR BLOCK SECOND DEGREE" ;
        skos:topConceptOf  code:aedecod .

code:aedecod-VENTRICULAR_EXTRASYSTOLES
        a                  code:Aedecod , skos:Concept ;
        rdfs:comment       "Coded values from data source. No reconciliation against another source"@en ;
        skos:inScheme      code:aedecod ;
        skos:prefLabel     "VENTRICULAR EXTRASYSTOLES" ;
        skos:topConceptOf  code:aedecod .

ds:dsd-AE  a          qb:DataStructureDefinition ;
        qb:component  dccs:procedure , dccs:factor , dccs:saffl , dccs:denominator , dccs:unit , dccs:aesoc , dccs:aedecod , dccs:trta , dccs:measure .

ds:obs463  a                        qb:Observation ;
        rdfs:label                  "463" ;
        qb:dataSet                  ds:dataset-AE ;
        crnd-attribute:denominator  "_NULL_" ;
        crnd-attribute:unit         "_NULL_"^^xsd:string ;
        crnd-dimension:aedecod      code:aedecod-LETHARGY ;
        crnd-dimension:aesoc        code:aesoc-NERVOUS_SYSTEM_DISORDERS ;
        crnd-dimension:factor       code:factor-quantity ;
        crnd-dimension:procedure    code:procedure-count ;
        crnd-dimension:saffl        code:saffl-Y ;
        crnd-dimension:trta         code:trta-Xanomeline_Low_Dose ;
        crnd-measure:measure        "1"^^xsd:int .

code:aedecod-_NONMISS_
        a                  code:Aedecod , skos:Concept ;
        rdfs:comment       "NON-CDISC: Represents the SUM of all non-missing codelist categories. Does not include category U (unknown) or missing values."@en ;
        skos:inScheme      code:aedecod ;
        skos:prefLabel     "_NONMISS_" ;
        skos:topConceptOf  code:aedecod .

ds:obs210  a                        qb:Observation ;
        rdfs:label                  "210" ;
        qb:dataSet                  ds:dataset-AE ;
        crnd-attribute:denominator  "_NULL_" ;
        crnd-attribute:unit         "_NULL_"^^xsd:string ;
        crnd-dimension:aedecod      code:aedecod-PARKINSON_S_DISEASE ;
        crnd-dimension:aesoc        code:aesoc-NERVOUS_SYSTEM_DISORDERS ;
        crnd-dimension:factor       code:factor-quantity ;
        crnd-dimension:procedure    code:procedure-count ;
        crnd-dimension:saffl        code:saffl-Y ;
        crnd-dimension:trta         code:trta-Placebo ;
        crnd-measure:measure        "1"^^xsd:int .

ds:obs638  a                        qb:Observation ;
        rdfs:label                  "638" ;
        qb:dataSet                  ds:dataset-AE ;
        crnd-attribute:denominator  "_NULL_" ;
        crnd-attribute:unit         "_NULL_"^^xsd:string ;
        crnd-dimension:aedecod      code:aedecod-NAUSEA ;
        crnd-dimension:aesoc        code:aesoc-GASTROINTESTINAL_DISORDERS ;
        crnd-dimension:factor       code:factor-USUBJID ;
        crnd-dimension:procedure    code:procedure-countdistinct ;
        crnd-dimension:saffl        code:saffl-Y ;
        crnd-dimension:trta         code:trta-Xanomeline_High_Dose ;
        crnd-measure:measure        "6"^^xsd:int .

ds:obs684  a                        qb:Observation ;
        rdfs:label                  "684" ;
        qb:dataSet                  ds:dataset-AE ;
        crnd-attribute:denominator  "_NULL_" ;
        crnd-attribute:unit         "_NULL_"^^xsd:string ;
        crnd-dimension:aedecod      code:aedecod-DECREASED_APPETITE ;
        crnd-dimension:aesoc        code:aesoc-METABOLISM_AND_NUTRITION_DISORDERS ;
        crnd-dimension:factor       code:factor-USUBJID ;
        crnd-dimension:procedure    code:procedure-countdistinct ;
        crnd-dimension:saffl        code:saffl-Y ;
        crnd-dimension:trta         code:trta-Xanomeline_High_Dose ;
        crnd-measure:measure        "1"^^xsd:int .

ds:obs859  a                        qb:Observation ;
        rdfs:label                  "859" ;
        qb:dataSet                  ds:dataset-AE ;
        crnd-attribute:denominator  "_NULL_" ;
        crnd-attribute:unit         "_NULL_"^^xsd:string ;
        crnd-dimension:aedecod      code:aedecod-BLISTER ;
        crnd-dimension:aesoc        code:aesoc-SKIN_AND_SUBCUTANEOUS_TISSUE_DISORDERS ;
        crnd-dimension:factor       code:factor-USUBJID ;
        crnd-dimension:procedure    code:procedure-countdistinct ;
        crnd-dimension:saffl        code:saffl-Y ;
        crnd-dimension:trta         code:trta-Xanomeline_Low_Dose ;
        crnd-measure:measure        "5"^^xsd:int .

ds:obs431  a                        qb:Observation ;
        rdfs:label                  "431" ;
        qb:dataSet                  ds:dataset-AE ;
        crnd-attribute:denominator  "_NULL_" ;
        crnd-attribute:unit         "_NULL_"^^xsd:string ;
        crnd-dimension:aedecod      code:aedecod-PNEUMONIA ;
        crnd-dimension:aesoc        code:aesoc-INFECTIONS_AND_INFESTATIONS ;
        crnd-dimension:factor       code:factor-quantity ;
        crnd-dimension:procedure    code:procedure-count ;
        crnd-dimension:saffl        code:saffl-Y ;
        crnd-dimension:trta         code:trta-Xanomeline_Low_Dose ;
        crnd-measure:measure        "2"^^xsd:int .

code:aedecod-APPLICATION_SITE_ERYTHEMA
        a                  code:Aedecod , skos:Concept ;
        rdfs:comment       "Coded values from data source. No reconciliation against another source"@en ;
        skos:inScheme      code:aedecod ;
        skos:prefLabel     "APPLICATION SITE ERYTHEMA" ;
        skos:topConceptOf  code:aedecod .

ds:obs606  a                        qb:Observation ;
        rdfs:label                  "606" ;
        qb:dataSet                  ds:dataset-AE ;
        crnd-attribute:denominator  "_NULL_" ;
        crnd-attribute:unit         "_NULL_"^^xsd:string ;
        crnd-dimension:aedecod      code:aedecod-RALES ;
        crnd-dimension:aesoc        code:aesoc-RESPIRATORY__THORACIC_AND_MEDIASTINAL_DISORDERS ;
        crnd-dimension:factor       code:factor-USUBJID ;
        crnd-dimension:procedure    code:procedure-countdistinct ;
        crnd-dimension:saffl        code:saffl-Y ;
        crnd-dimension:trta         code:trta-Placebo ;
        crnd-measure:measure        "1"^^xsd:int .

ds:obs186  a                        qb:Observation ;
        rdfs:label                  "186" ;
        qb:dataSet                  ds:dataset-AE ;
        crnd-attribute:denominator  "_NULL_" ;
        crnd-attribute:unit         "_NULL_"^^xsd:string ;
        crnd-dimension:aedecod      code:aedecod-HIP_FRACTURE ;
        crnd-dimension:aesoc        code:aesoc-INJURY__POISONING_AND_PROCEDURAL_COMPLICATIONS ;
        crnd-dimension:factor       code:factor-quantity ;
        crnd-dimension:procedure    code:procedure-count ;
        crnd-dimension:saffl        code:saffl-Y ;
        crnd-dimension:trta         code:trta-Placebo ;
        crnd-measure:measure        "2"^^xsd:int .

code:aesoc-SOCIAL_CIRCUMSTANCES
        a                  code:Aesoc , skos:Concept ;
        rdfs:comment       "Coded values from data source. No reconciliation against another source"@en ;
        skos:inScheme      code:aesoc ;
        skos:prefLabel     "SOCIAL CIRCUMSTANCES" ;
        skos:topConceptOf  code:aesoc .

ds:obs652  a                        qb:Observation ;
        rdfs:label                  "652" ;
        qb:dataSet                  ds:dataset-AE ;
        crnd-attribute:denominator  "_NULL_" ;
        crnd-attribute:unit         "_NULL_"^^xsd:string ;
        crnd-dimension:aedecod      code:aedecod-APPLICATION_SITE_VESICLES ;
        crnd-dimension:aesoc        code:aesoc-GENERAL_DISORDERS_AND_ADMINISTRATION_SITE_CONDITIONS ;
        crnd-dimension:factor       code:factor-USUBJID ;
        crnd-dimension:procedure    code:procedure-countdistinct ;
        crnd-dimension:saffl        code:saffl-Y ;
        crnd-dimension:trta         code:trta-Xanomeline_High_Dose ;
        crnd-measure:measure        "6"^^xsd:int .

ds:obs108  a                        qb:Observation ;
        rdfs:label                  "108" ;
        qb:dataSet                  ds:dataset-AE ;
        crnd-attribute:denominator  "_NULL_" ;
        crnd-attribute:unit         "_NULL_"^^xsd:string ;
        crnd-dimension:aedecod      code:aedecod-_ALL_ ;
        crnd-dimension:aesoc        code:aesoc-VASCULAR_DISORDERS ;
        crnd-dimension:factor       code:factor-USUBJID ;
        crnd-dimension:procedure    code:procedure-countdistinct ;
        crnd-dimension:saffl        code:saffl-Y ;
        crnd-dimension:trta         code:trta-Xanomeline_High_Dose ;
        crnd-measure:measure        "2"^^xsd:int .

ds:obs827  a                        qb:Observation ;
        rdfs:label                  "827" ;
        qb:dataSet                  ds:dataset-AE ;
        crnd-attribute:denominator  "_NULL_" ;
        crnd-attribute:unit         "_NULL_"^^xsd:string ;
        crnd-dimension:aedecod      code:aedecod-SHOULDER_PAIN ;
        crnd-dimension:aesoc        code:aesoc-MUSCULOSKELETAL_AND_CONNECTIVE_TISSUE_DISORDERS ;
        crnd-dimension:factor       code:factor-USUBJID ;
        crnd-dimension:procedure    code:procedure-countdistinct ;
        crnd-dimension:saffl        code:saffl-Y ;
        crnd-dimension:trta         code:trta-Xanomeline_Low_Dose ;
        crnd-measure:measure        "2"^^xsd:int .

code:aesoc-VASCULAR_DISORDERS
        a                  code:Aesoc , skos:Concept ;
        rdfs:comment       "Coded values from data source. No reconciliation against another source"@en ;
        skos:inScheme      code:aesoc ;
        skos:prefLabel     "VASCULAR DISORDERS" ;
        skos:topConceptOf  code:aesoc .

ds:obs154  a                        qb:Observation ;
        rdfs:label                  "154" ;
        qb:dataSet                  ds:dataset-AE ;
        crnd-attribute:denominator  "_NULL_" ;
        crnd-attribute:unit         "_NULL_"^^xsd:string ;
        crnd-dimension:aedecod      code:aedecod-GASTROOESOPHAGEAL_REFLUX_DISEASE ;
        crnd-dimension:aesoc        code:aesoc-GASTROINTESTINAL_DISORDERS ;
        crnd-dimension:factor       code:factor-quantity ;
        crnd-dimension:procedure    code:procedure-count ;
        crnd-dimension:saffl        code:saffl-Y ;
        crnd-dimension:trta         code:trta-Placebo ;
        crnd-measure:measure        "1"^^xsd:int .

ds:obs873  a                        qb:Observation ;
        rdfs:label                  "873" ;
        qb:dataSet                  ds:dataset-AE ;
        crnd-attribute:denominator  "_NULL_" ;
        crnd-attribute:unit         "_NULL_"^^xsd:string ;
        crnd-dimension:aedecod      code:aedecod-HYPERTENSION ;
        crnd-dimension:aesoc        code:aesoc-VASCULAR_DISORDERS ;
        crnd-dimension:factor       code:factor-USUBJID ;
        crnd-dimension:procedure    code:procedure-countdistinct ;
        crnd-dimension:saffl        code:saffl-Y ;
        crnd-dimension:trta         code:trta-Xanomeline_Low_Dose ;
        crnd-measure:measure        "1"^^xsd:int .

ds:obs329  a                        qb:Observation ;
        rdfs:label                  "329" ;
        qb:dataSet                  ds:dataset-AE ;
        crnd-attribute:denominator  "_NULL_" ;
        crnd-attribute:unit         "_NULL_"^^xsd:string ;
        crnd-dimension:aedecod      code:aedecod-PAROSMIA ;
        crnd-dimension:aesoc        code:aesoc-NERVOUS_SYSTEM_DISORDERS ;
        crnd-dimension:factor       code:factor-quantity ;
        crnd-dimension:procedure    code:procedure-count ;
        crnd-dimension:saffl        code:saffl-Y ;
        crnd-dimension:trta         code:trta-Xanomeline_High_Dose ;
        crnd-measure:measure        "2"^^xsd:int .

code:aesoc-SURGICAL_AND_MEDICAL_PROCEDURES
        a                  code:Aesoc , skos:Concept ;
        rdfs:comment       "Coded values from data source. No reconciliation against another source"@en ;
        skos:inScheme      code:aesoc ;
        skos:prefLabel     "SURGICAL AND MEDICAL PROCEDURES" ;
        skos:topConceptOf  code:aesoc .

ds:obs620  a                        qb:Observation ;
        rdfs:label                  "620" ;
        qb:dataSet                  ds:dataset-AE ;
        crnd-attribute:denominator  "_NULL_" ;
        crnd-attribute:unit         "_NULL_"^^xsd:string ;
        crnd-dimension:aedecod      code:aedecod-HYPOTENSION ;
        crnd-dimension:aesoc        code:aesoc-VASCULAR_DISORDERS ;
        crnd-dimension:factor       code:factor-USUBJID ;
        crnd-dimension:procedure    code:procedure-countdistinct ;
        crnd-dimension:saffl        code:saffl-Y ;
        crnd-dimension:trta         code:trta-Placebo ;
        crnd-measure:measure        "2"^^xsd:int .

ds:obs375  a                        qb:Observation ;
        rdfs:label                  "375" ;
        qb:dataSet                  ds:dataset-AE ;
        crnd-attribute:denominator  "_NULL_" ;
        crnd-attribute:unit         "_NULL_"^^xsd:string ;
        crnd-dimension:aedecod      code:aedecod-SKIN_LESION_EXCISION ;
        crnd-dimension:aesoc        code:aesoc-SURGICAL_AND_MEDICAL_PROCEDURES ;
        crnd-dimension:factor       code:factor-quantity ;
        crnd-dimension:procedure    code:procedure-count ;
        crnd-dimension:saffl        code:saffl-Y ;
        crnd-dimension:trta         code:trta-Xanomeline_High_Dose ;
        crnd-measure:measure        "1"^^xsd:int .

ds:obs122  a                        qb:Observation ;
        rdfs:label                  "122" ;
        qb:dataSet                  ds:dataset-AE ;
        crnd-attribute:denominator  "_NULL_" ;
        crnd-attribute:unit         "_NULL_"^^xsd:string ;
        crnd-dimension:aedecod      code:aedecod-_ALL_ ;
        crnd-dimension:aesoc        code:aesoc-NERVOUS_SYSTEM_DISORDERS ;
        crnd-dimension:factor       code:factor-USUBJID ;
        crnd-dimension:procedure    code:procedure-countdistinct ;
        crnd-dimension:saffl        code:saffl-Y ;
        crnd-dimension:trta         code:trta-Xanomeline_Low_Dose ;
        crnd-measure:measure        "20"^^xsd:int .

ds:obs841  a                        qb:Observation ;
        rdfs:label                  "841" ;
        qb:dataSet                  ds:dataset-AE ;
        crnd-attribute:denominator  "_NULL_" ;
        crnd-attribute:unit         "_NULL_"^^xsd:string ;
        crnd-dimension:aedecod      code:aedecod-TRANSIENT_ISCHAEMIC_ATTACK ;
        crnd-dimension:aesoc        code:aesoc-NERVOUS_SYSTEM_DISORDERS ;
        crnd-dimension:factor       code:factor-USUBJID ;
        crnd-dimension:procedure    code:procedure-countdistinct ;
        crnd-dimension:saffl        code:saffl-Y ;
        crnd-dimension:trta         code:trta-Xanomeline_Low_Dose ;
        crnd-measure:measure        "2"^^xsd:int .

code:aedecod-DEPRESSED_MOOD
        a                  code:Aedecod , skos:Concept ;
        rdfs:comment       "Coded values from data source. No reconciliation against another source"@en ;
        skos:inScheme      code:aedecod ;
        skos:prefLabel     "DEPRESSED MOOD" ;
        skos:topConceptOf  code:aedecod .

ds:obs596  a                        qb:Observation ;
        rdfs:label                  "596" ;
        qb:dataSet                  ds:dataset-AE ;
        crnd-attribute:denominator  "_NULL_" ;
        crnd-attribute:unit         "_NULL_"^^xsd:string ;
        crnd-dimension:aedecod      code:aedecod-NEPHROLITHIASIS ;
        crnd-dimension:aesoc        code:aesoc-RENAL_AND_URINARY_DISORDERS ;
        crnd-dimension:factor       code:factor-USUBJID ;
        crnd-dimension:procedure    code:procedure-countdistinct ;
        crnd-dimension:saffl        code:saffl-Y ;
        crnd-dimension:trta         code:trta-Placebo ;
        crnd-measure:measure        "1"^^xsd:int .

ds:obs343  a                        qb:Observation ;
        rdfs:label                  "343" ;
        qb:dataSet                  ds:dataset-AE ;
        crnd-attribute:denominator  "_NULL_" ;
        crnd-attribute:unit         "_NULL_"^^xsd:string ;
        crnd-dimension:aedecod      code:aedecod-LIBIDO_DECREASED ;
        crnd-dimension:aesoc        code:aesoc-PSYCHIATRIC_DISORDERS ;
        crnd-dimension:factor       code:factor-quantity ;
        crnd-dimension:procedure    code:procedure-count ;
        crnd-dimension:saffl        code:saffl-Y ;
        crnd-dimension:trta         code:trta-Xanomeline_High_Dose ;
        crnd-measure:measure        "1"^^xsd:int .

ds:obs518  a                        qb:Observation ;
        rdfs:label                  "518" ;
        qb:dataSet                  ds:dataset-AE ;
        crnd-attribute:denominator  "_NULL_" ;
        crnd-attribute:unit         "_NULL_"^^xsd:string ;
        crnd-dimension:aedecod      code:aedecod-EYE_ALLERGY ;
        crnd-dimension:aesoc        code:aesoc-EYE_DISORDERS ;
        crnd-dimension:factor       code:factor-USUBJID ;
        crnd-dimension:procedure    code:procedure-countdistinct ;
        crnd-dimension:saffl        code:saffl-Y ;
        crnd-dimension:trta         code:trta-Placebo ;
        crnd-measure:measure        "1"^^xsd:int .

ds:obs48  a                         qb:Observation ;
        rdfs:label                  "48" ;
        qb:dataSet                  ds:dataset-AE ;
        crnd-attribute:denominator  "_NULL_" ;
        crnd-attribute:unit         "_NULL_"^^xsd:string ;
        crnd-dimension:aedecod      code:aedecod-_ALL_ ;
        crnd-dimension:aesoc        code:aesoc-CARDIAC_DISORDERS ;
        crnd-dimension:factor       code:factor-quantity ;
        crnd-dimension:procedure    code:procedure-count ;
        crnd-dimension:saffl        code:saffl-Y ;
        crnd-dimension:trta         code:trta-Xanomeline_Low_Dose ;
        crnd-measure:measure        "30"^^xsd:int .

ds:obs1  a                          qb:Observation ;
        rdfs:label                  "1" ;
        qb:dataSet                  ds:dataset-AE ;
        crnd-attribute:denominator  "_NULL_" ;
        crnd-attribute:unit         "_NULL_"^^xsd:string ;
        crnd-dimension:aedecod      code:aedecod-_ALL_ ;
        crnd-dimension:aesoc        code:aesoc-_ALL_ ;
        crnd-dimension:factor       code:factor-quantity ;
        crnd-dimension:procedure    code:procedure-count ;
        crnd-dimension:saffl        code:saffl-Y ;
        crnd-dimension:trta         code:trta-Placebo ;
        crnd-measure:measure        "301"^^xsd:int .

ds:obs564  a                        qb:Observation ;
        rdfs:label                  "564" ;
        qb:dataSet                  ds:dataset-AE ;
        crnd-attribute:denominator  "_NULL_" ;
        crnd-attribute:unit         "_NULL_"^^xsd:string ;
        crnd-dimension:aedecod      code:aedecod-CYSTOSCOPY ;
        crnd-dimension:aesoc        code:aesoc-INVESTIGATIONS ;
        crnd-dimension:factor       code:factor-USUBJID ;
        crnd-dimension:procedure    code:procedure-countdistinct ;
        crnd-dimension:saffl        code:saffl-Y ;
        crnd-dimension:trta         code:trta-Placebo ;
        crnd-measure:measure        "1"^^xsd:int .

ds:obs311  a                        qb:Observation ;
        rdfs:label                  "311" ;
        qb:dataSet                  ds:dataset-AE ;
        crnd-attribute:denominator  "_NULL_" ;
        crnd-attribute:unit         "_NULL_"^^xsd:string ;
        crnd-dimension:aedecod      code:aedecod-DECREASED_APPETITE ;
        crnd-dimension:aesoc        code:aesoc-METABOLISM_AND_NUTRITION_DISORDERS ;
        crnd-dimension:factor       code:factor-quantity ;
        crnd-dimension:procedure    code:procedure-count ;
        crnd-dimension:saffl        code:saffl-Y ;
        crnd-dimension:trta         code:trta-Xanomeline_High_Dose ;
        crnd-measure:measure        "2"^^xsd:int .

ds:obs94  a                         qb:Observation ;
        rdfs:label                  "94" ;
        qb:dataSet                  ds:dataset-AE ;
        crnd-attribute:denominator  "_NULL_" ;
        crnd-attribute:unit         "_NULL_"^^xsd:string ;
        crnd-dimension:aedecod      code:aedecod-_ALL_ ;
        crnd-dimension:aesoc        code:aesoc-INFECTIONS_AND_INFESTATIONS ;
        crnd-dimension:factor       code:factor-USUBJID ;
        crnd-dimension:procedure    code:procedure-countdistinct ;
        crnd-dimension:saffl        code:saffl-Y ;
        crnd-dimension:trta         code:trta-Xanomeline_High_Dose ;
        crnd-measure:measure        "13"^^xsd:int .

ds:obs739  a                        qb:Observation ;
        rdfs:label                  "739" ;
        qb:dataSet                  ds:dataset-AE ;
        crnd-attribute:denominator  "_NULL_" ;
        crnd-attribute:unit         "_NULL_"^^xsd:string ;
        crnd-dimension:aedecod      code:aedecod-RASH ;
        crnd-dimension:aesoc        code:aesoc-SKIN_AND_SUBCUTANEOUS_TISSUE_DISORDERS ;
        crnd-dimension:factor       code:factor-USUBJID ;
        crnd-dimension:procedure    code:procedure-countdistinct ;
        crnd-dimension:saffl        code:saffl-Y ;
        crnd-dimension:trta         code:trta-Xanomeline_High_Dose ;
        crnd-measure:measure        "11"^^xsd:int .

code:aedecod-VIRAL_INFECTION
        a                  code:Aedecod , skos:Concept ;
        rdfs:comment       "Coded values from data source. No reconciliation against another source"@en ;
        skos:inScheme      code:aedecod ;
        skos:prefLabel     "VIRAL INFECTION" ;
        skos:topConceptOf  code:aedecod .

ds:obs16  a                         qb:Observation ;
        rdfs:label                  "16" ;
        qb:dataSet                  ds:dataset-AE ;
        crnd-attribute:denominator  "_NULL_" ;
        crnd-attribute:unit         "_NULL_"^^xsd:string ;
        crnd-dimension:aedecod      code:aedecod-_ALL_ ;
        crnd-dimension:aesoc        code:aesoc-METABOLISM_AND_NUTRITION_DISORDERS ;
        crnd-dimension:factor       code:factor-quantity ;
        crnd-dimension:procedure    code:procedure-count ;
        crnd-dimension:saffl        code:saffl-Y ;
        crnd-dimension:trta         code:trta-Placebo ;
        crnd-measure:measure        "8"^^xsd:int .

ds:obs785  a                        qb:Observation ;
        rdfs:label                  "785" ;
        qb:dataSet                  ds:dataset-AE ;
        crnd-attribute:denominator  "_NULL_" ;
        crnd-attribute:unit         "_NULL_"^^xsd:string ;
        crnd-dimension:aedecod      code:aedecod-APPLICATION_SITE_WARMTH ;
        crnd-dimension:aesoc        code:aesoc-GENERAL_DISORDERS_AND_ADMINISTRATION_SITE_CONDITIONS ;
        crnd-dimension:factor       code:factor-USUBJID ;
        crnd-dimension:procedure    code:procedure-countdistinct ;
        crnd-dimension:saffl        code:saffl-Y ;
        crnd-dimension:trta         code:trta-Xanomeline_Low_Dose ;
        crnd-measure:measure        "1"^^xsd:int .

ds:obs532  a                        qb:Observation ;
        rdfs:label                  "532" ;
        qb:dataSet                  ds:dataset-AE ;
        crnd-attribute:denominator  "_NULL_" ;
        crnd-attribute:unit         "_NULL_"^^xsd:string ;
        crnd-dimension:aedecod      code:aedecod-APPLICATION_SITE_DERMATITIS ;
        crnd-dimension:aesoc        code:aesoc-GENERAL_DISORDERS_AND_ADMINISTRATION_SITE_CONDITIONS ;
        crnd-dimension:factor       code:factor-USUBJID ;
        crnd-dimension:procedure    code:procedure-countdistinct ;
        crnd-dimension:saffl        code:saffl-Y ;
        crnd-dimension:trta         code:trta-Placebo ;
        crnd-measure:measure        "5"^^xsd:int .

code:aedecod-AGITATION
        a                  code:Aedecod , skos:Concept ;
        rdfs:comment       "Coded values from data source. No reconciliation against another source"@en ;
        skos:inScheme      code:aedecod ;
        skos:prefLabel     "AGITATION" ;
        skos:topConceptOf  code:aedecod .

ds:obs62  a                         qb:Observation ;
        rdfs:label                  "62" ;
        qb:dataSet                  ds:dataset-AE ;
        crnd-attribute:denominator  "_NULL_" ;
        crnd-attribute:unit         "_NULL_"^^xsd:string ;
        crnd-dimension:aedecod      code:aedecod-_ALL_ ;
        crnd-dimension:aesoc        code:aesoc-PSYCHIATRIC_DISORDERS ;
        crnd-dimension:factor       code:factor-quantity ;
        crnd-dimension:procedure    code:procedure-count ;
        crnd-dimension:saffl        code:saffl-Y ;
        crnd-dimension:trta         code:trta-Xanomeline_Low_Dose ;
        crnd-measure:measure        "14"^^xsd:int .

ds:obs707  a                        qb:Observation ;
        rdfs:label                  "707" ;
        qb:dataSet                  ds:dataset-AE ;
        crnd-attribute:denominator  "_NULL_" ;
        crnd-attribute:unit         "_NULL_"^^xsd:string ;
        crnd-dimension:aedecod      code:aedecod-TRANSIENT_ISCHAEMIC_ATTACK ;
        crnd-dimension:aesoc        code:aesoc-NERVOUS_SYSTEM_DISORDERS ;
        crnd-dimension:factor       code:factor-USUBJID ;
        crnd-dimension:procedure    code:procedure-countdistinct ;
        crnd-dimension:saffl        code:saffl-Y ;
        crnd-dimension:trta         code:trta-Xanomeline_High_Dose ;
        crnd-measure:measure        "1"^^xsd:int .

ds:obs287  a                        qb:Observation ;
        rdfs:label                  "287" ;
        qb:dataSet                  ds:dataset-AE ;
        crnd-attribute:denominator  "_NULL_" ;
        crnd-attribute:unit         "_NULL_"^^xsd:string ;
        crnd-dimension:aedecod      code:aedecod-MALAISE ;
        crnd-dimension:aesoc        code:aesoc-GENERAL_DISORDERS_AND_ADMINISTRATION_SITE_CONDITIONS ;
        crnd-dimension:factor       code:factor-quantity ;
        crnd-dimension:procedure    code:procedure-count ;
        crnd-dimension:saffl        code:saffl-Y ;
        crnd-dimension:trta         code:trta-Xanomeline_High_Dose ;
        crnd-measure:measure        "3"^^xsd:int .

ds:obs753  a                        qb:Observation ;
        rdfs:label                  "753" ;
        qb:dataSet                  ds:dataset-AE ;
        crnd-attribute:denominator  "_NULL_" ;
        crnd-attribute:unit         "_NULL_"^^xsd:string ;
        crnd-dimension:aedecod      code:aedecod-ATRIOVENTRICULAR_BLOCK_FIRST_DEGREE ;
        crnd-dimension:aesoc        code:aesoc-CARDIAC_DISORDERS ;
        crnd-dimension:factor       code:factor-USUBJID ;
        crnd-dimension:procedure    code:procedure-countdistinct ;
        crnd-dimension:saffl        code:saffl-Y ;
        crnd-dimension:trta         code:trta-Xanomeline_Low_Dose ;
        crnd-measure:measure        "1"^^xsd:int .

ds:obs209  a                        qb:Observation ;
        rdfs:label                  "209" ;
        qb:dataSet                  ds:dataset-AE ;
        crnd-attribute:denominator  "_NULL_" ;
        crnd-attribute:unit         "_NULL_"^^xsd:string ;
        crnd-dimension:aedecod      code:aedecod-HEADACHE ;
        crnd-dimension:aesoc        code:aesoc-NERVOUS_SYSTEM_DISORDERS ;
        crnd-dimension:factor       code:factor-quantity ;
        crnd-dimension:procedure    code:procedure-count ;
        crnd-dimension:saffl        code:saffl-Y ;
        crnd-dimension:trta         code:trta-Placebo ;
        crnd-measure:measure        "8"^^xsd:int .

ds:obs500  a                        qb:Observation ;
        rdfs:label                  "500" ;
        qb:dataSet                  ds:dataset-AE ;
        crnd-attribute:denominator  "_NULL_" ;
        crnd-attribute:unit         "_NULL_"^^xsd:string ;
        crnd-dimension:aedecod      code:aedecod-HYPERTENSION ;
        crnd-dimension:aesoc        code:aesoc-VASCULAR_DISORDERS ;
        crnd-dimension:factor       code:factor-quantity ;
        crnd-dimension:procedure    code:procedure-count ;
        crnd-dimension:saffl        code:saffl-Y ;
        crnd-dimension:trta         code:trta-Xanomeline_Low_Dose ;
        crnd-measure:measure        "1"^^xsd:int .

code:aedecod-PSYCHOMOTOR_HYPERACTIVITY
        a                  code:Aedecod , skos:Concept ;
        rdfs:comment       "Coded values from data source. No reconciliation against another source"@en ;
        skos:inScheme      code:aedecod ;
        skos:prefLabel     "PSYCHOMOTOR HYPERACTIVITY" ;
        skos:topConceptOf  code:aedecod .

ds:obs30  a                         qb:Observation ;
        rdfs:label                  "30" ;
        qb:dataSet                  ds:dataset-AE ;
        crnd-attribute:denominator  "_NULL_" ;
        crnd-attribute:unit         "_NULL_"^^xsd:string ;
        crnd-dimension:aedecod      code:aedecod-_ALL_ ;
        crnd-dimension:aesoc        code:aesoc-GASTROINTESTINAL_DISORDERS ;
        crnd-dimension:factor       code:factor-quantity ;
        crnd-dimension:procedure    code:procedure-count ;
        crnd-dimension:saffl        code:saffl-Y ;
        crnd-dimension:trta         code:trta-Xanomeline_High_Dose ;
        crnd-measure:measure        "37"^^xsd:int .

code:Trta  a             rdfs:Class , owl:Class ;
        rdfs:comment     "Specifies the trta for each observation"@en ;
        rdfs:label       "Class for code list: trta"@en ;
        rdfs:seeAlso     code:trta ;
        rdfs:subClassOf  skos:Concept .

code:aedecod-BACK_PAIN
        a                  code:Aedecod , skos:Concept ;
        rdfs:comment       "Coded values from data source. No reconciliation against another source"@en ;
        skos:inScheme      code:aedecod ;
        skos:prefLabel     "BACK PAIN" ;
        skos:topConceptOf  code:aedecod .

ds:obs255  a                        qb:Observation ;
        rdfs:label                  "255" ;
        qb:dataSet                  ds:dataset-AE ;
        crnd-attribute:denominator  "_NULL_" ;
        crnd-attribute:unit         "_NULL_"^^xsd:string ;
        crnd-dimension:aedecod      code:aedecod-SUPRAVENTRICULAR_EXTRASYSTOLES ;
        crnd-dimension:aesoc        code:aesoc-CARDIAC_DISORDERS ;
        crnd-dimension:factor       code:factor-quantity ;
        crnd-dimension:procedure    code:procedure-count ;
        crnd-dimension:saffl        code:saffl-Y ;
        crnd-dimension:trta         code:trta-Xanomeline_High_Dose ;
        crnd-measure:measure        "1"^^xsd:int .

code:aedecod-RHINITIS
        a                  code:Aedecod , skos:Concept ;
        rdfs:comment       "Coded values from data source. No reconciliation against another source"@en ;
        skos:inScheme      code:aedecod ;
        skos:prefLabel     "RHINITIS" ;
        skos:topConceptOf  code:aedecod .

ds:obs721  a                        qb:Observation ;
        rdfs:label                  "721" ;
        qb:dataSet                  ds:dataset-AE ;
        crnd-attribute:denominator  "_NULL_" ;
        crnd-attribute:unit         "_NULL_"^^xsd:string ;
        crnd-dimension:aedecod      code:aedecod-NEPHROLITHIASIS ;
        crnd-dimension:aesoc        code:aesoc-RENAL_AND_URINARY_DISORDERS ;
        crnd-dimension:factor       code:factor-USUBJID ;
        crnd-dimension:procedure    code:procedure-countdistinct ;
        crnd-dimension:saffl        code:saffl-Y ;
        crnd-dimension:trta         code:trta-Xanomeline_High_Dose ;
        crnd-measure:measure        "1"^^xsd:int .

ds:obs476  a                        qb:Observation ;
        rdfs:label                  "476" ;
        qb:dataSet                  ds:dataset-AE ;
        crnd-attribute:denominator  "_NULL_" ;
        crnd-attribute:unit         "_NULL_"^^xsd:string ;
        crnd-dimension:aedecod      code:aedecod-ENURESIS ;
        crnd-dimension:aesoc        code:aesoc-RENAL_AND_URINARY_DISORDERS ;
        crnd-dimension:factor       code:factor-quantity ;
        crnd-dimension:procedure    code:procedure-count ;
        crnd-dimension:saffl        code:saffl-Y ;
        crnd-dimension:trta         code:trta-Xanomeline_Low_Dose ;
        crnd-measure:measure        "1"^^xsd:int .

ds:obs223  a                        qb:Observation ;
        rdfs:label                  "223" ;
        qb:dataSet                  ds:dataset-AE ;
        crnd-attribute:denominator  "_NULL_" ;
        crnd-attribute:unit         "_NULL_"^^xsd:string ;
        crnd-dimension:aedecod      code:aedecod-NEPHROLITHIASIS ;
        crnd-dimension:aesoc        code:aesoc-RENAL_AND_URINARY_DISORDERS ;
        crnd-dimension:factor       code:factor-quantity ;
        crnd-dimension:procedure    code:procedure-count ;
        crnd-dimension:saffl        code:saffl-Y ;
        crnd-dimension:trta         code:trta-Placebo ;
        crnd-measure:measure        "1"^^xsd:int .

code:aedecod-COLD_SWEAT
        a                  code:Aedecod , skos:Concept ;
        rdfs:comment       "Coded values from data source. No reconciliation against another source"@en ;
        skos:inScheme      code:aedecod ;
        skos:prefLabel     "COLD SWEAT" ;
        skos:topConceptOf  code:aedecod .

code:aedecod-APPLICATION_SITE_VESICLES
        a                  code:Aedecod , skos:Concept ;
        rdfs:comment       "Coded values from data source. No reconciliation against another source"@en ;
        skos:inScheme      code:aedecod ;
        skos:prefLabel     "APPLICATION SITE VESICLES" ;
        skos:topConceptOf  code:aedecod .

ds:obs697  a                        qb:Observation ;
        rdfs:label                  "697" ;
        qb:dataSet                  ds:dataset-AE ;
        crnd-attribute:denominator  "_NULL_" ;
        crnd-attribute:unit         "_NULL_"^^xsd:string ;
        crnd-dimension:aedecod      code:aedecod-DIZZINESS ;
        crnd-dimension:aesoc        code:aesoc-NERVOUS_SYSTEM_DISORDERS ;
        crnd-dimension:factor       code:factor-USUBJID ;
        crnd-dimension:procedure    code:procedure-countdistinct ;
        crnd-dimension:saffl        code:saffl-Y ;
        crnd-dimension:trta         code:trta-Xanomeline_High_Dose ;
        crnd-measure:measure        "12"^^xsd:int .

ds:obs444  a                        qb:Observation ;
        rdfs:label                  "444" ;
        qb:dataSet                  ds:dataset-AE ;
        crnd-attribute:denominator  "_NULL_" ;
        crnd-attribute:unit         "_NULL_"^^xsd:string ;
        crnd-dimension:aedecod      code:aedecod-ELECTROCARDIOGRAM_T_WAVE_INVERSION ;
        crnd-dimension:aesoc        code:aesoc-INVESTIGATIONS ;
        crnd-dimension:factor       code:factor-quantity ;
        crnd-dimension:procedure    code:procedure-count ;
        crnd-dimension:saffl        code:saffl-Y ;
        crnd-dimension:trta         code:trta-Xanomeline_Low_Dose ;
        crnd-measure:measure        "1"^^xsd:int .

ds:obs619  a                        qb:Observation ;
        rdfs:label                  "619" ;
        qb:dataSet                  ds:dataset-AE ;
        crnd-attribute:denominator  "_NULL_" ;
        crnd-attribute:unit         "_NULL_"^^xsd:string ;
        crnd-dimension:aedecod      code:aedecod-HYPERTENSION ;
        crnd-dimension:aesoc        code:aesoc-VASCULAR_DISORDERS ;
        crnd-dimension:factor       code:factor-USUBJID ;
        crnd-dimension:procedure    code:procedure-countdistinct ;
        crnd-dimension:saffl        code:saffl-Y ;
        crnd-dimension:trta         code:trta-Placebo ;
        crnd-measure:measure        "1"^^xsd:int .

ds:obs199  a                        qb:Observation ;
        rdfs:label                  "199" ;
        qb:dataSet                  ds:dataset-AE ;
        crnd-attribute:denominator  "_NULL_" ;
        crnd-attribute:unit         "_NULL_"^^xsd:string ;
        crnd-dimension:aedecod      code:aedecod-DIABETES_MELLITUS ;
        crnd-dimension:aesoc        code:aesoc-METABOLISM_AND_NUTRITION_DISORDERS ;
        crnd-dimension:factor       code:factor-quantity ;
        crnd-dimension:procedure    code:procedure-count ;
        crnd-dimension:saffl        code:saffl-Y ;
        crnd-dimension:trta         code:trta-Placebo ;
        crnd-measure:measure        "1"^^xsd:int .

ds:obs490  a                        qb:Observation ;
        rdfs:label                  "490" ;
        qb:dataSet                  ds:dataset-AE ;
        crnd-attribute:denominator  "_NULL_" ;
        crnd-attribute:unit         "_NULL_"^^xsd:string ;
        crnd-dimension:aedecod      code:aedecod-PRURITUS ;
        crnd-dimension:aesoc        code:aesoc-SKIN_AND_SUBCUTANEOUS_TISSUE_DISORDERS ;
        crnd-dimension:factor       code:factor-quantity ;
        crnd-dimension:procedure    code:procedure-count ;
        crnd-dimension:saffl        code:saffl-Y ;
        crnd-dimension:trta         code:trta-Xanomeline_Low_Dose ;
        crnd-measure:measure        "35"^^xsd:int .

code:aedecod-SUPRAVENTRICULAR_TACHYCARDIA
        a                  code:Aedecod , skos:Concept ;
        rdfs:comment       "Coded values from data source. No reconciliation against another source"@en ;
        skos:inScheme      code:aedecod ;
        skos:prefLabel     "SUPRAVENTRICULAR TACHYCARDIA" ;
        skos:topConceptOf  code:aedecod .

ds:obs665  a                        qb:Observation ;
        rdfs:label                  "665" ;
        qb:dataSet                  ds:dataset-AE ;
        crnd-attribute:denominator  "_NULL_" ;
        crnd-attribute:unit         "_NULL_"^^xsd:string ;
        crnd-dimension:aedecod      code:aedecod-CYSTITIS ;
        crnd-dimension:aesoc        code:aesoc-INFECTIONS_AND_INFESTATIONS ;
        crnd-dimension:factor       code:factor-USUBJID ;
        crnd-dimension:procedure    code:procedure-countdistinct ;
        crnd-dimension:saffl        code:saffl-Y ;
        crnd-dimension:trta         code:trta-Xanomeline_High_Dose ;
        crnd-measure:measure        "1"^^xsd:int .

ds:obs412  a                        qb:Observation ;
        rdfs:label                  "412" ;
        qb:dataSet                  ds:dataset-AE ;
        crnd-attribute:denominator  "_NULL_" ;
        crnd-attribute:unit         "_NULL_"^^xsd:string ;
        crnd-dimension:aedecod      code:aedecod-APPLICATION_SITE_WARMTH ;
        crnd-dimension:aesoc        code:aesoc-GENERAL_DISORDERS_AND_ADMINISTRATION_SITE_CONDITIONS ;
        crnd-dimension:factor       code:factor-quantity ;
        crnd-dimension:procedure    code:procedure-count ;
        crnd-dimension:saffl        code:saffl-Y ;
        crnd-dimension:trta         code:trta-Xanomeline_Low_Dose ;
        crnd-measure:measure        "2"^^xsd:int .

ds:obs167  a                        qb:Observation ;
        rdfs:label                  "167" ;
        qb:dataSet                  ds:dataset-AE ;
        crnd-attribute:denominator  "_NULL_" ;
        crnd-attribute:unit         "_NULL_"^^xsd:string ;
        crnd-dimension:aedecod      code:aedecod-CHILLS ;
        crnd-dimension:aesoc        code:aesoc-GENERAL_DISORDERS_AND_ADMINISTRATION_SITE_CONDITIONS ;
        crnd-dimension:factor       code:factor-quantity ;
        crnd-dimension:procedure    code:procedure-count ;
        crnd-dimension:saffl        code:saffl-Y ;
        crnd-dimension:trta         code:trta-Placebo ;
        crnd-measure:measure        "3"^^xsd:int .

code:aedecod-DISORIENTATION
        a                  code:Aedecod , skos:Concept ;
        rdfs:comment       "Coded values from data source. No reconciliation against another source"@en ;
        skos:inScheme      code:aedecod ;
        skos:prefLabel     "DISORIENTATION" ;
        skos:topConceptOf  code:aedecod .

ds:obs633  a                        qb:Observation ;
        rdfs:label                  "633" ;
        qb:dataSet                  ds:dataset-AE ;
        crnd-attribute:denominator  "_NULL_" ;
        crnd-attribute:unit         "_NULL_"^^xsd:string ;
        crnd-dimension:aedecod      code:aedecod-ABDOMINAL_DISCOMFORT ;
        crnd-dimension:aesoc        code:aesoc-GASTROINTESTINAL_DISORDERS ;
        crnd-dimension:factor       code:factor-USUBJID ;
        crnd-dimension:procedure    code:procedure-countdistinct ;
        crnd-dimension:saffl        code:saffl-Y ;
        crnd-dimension:trta         code:trta-Xanomeline_High_Dose ;
        crnd-measure:measure        "1"^^xsd:int .

ds:obs808  a                        qb:Observation ;
        rdfs:label                  "808" ;
        qb:dataSet                  ds:dataset-AE ;
        crnd-attribute:denominator  "_NULL_" ;
        crnd-attribute:unit         "_NULL_"^^xsd:string ;
        crnd-dimension:aedecod      code:aedecod-EXCORIATION ;
        crnd-dimension:aesoc        code:aesoc-INJURY__POISONING_AND_PROCEDURAL_COMPLICATIONS ;
        crnd-dimension:factor       code:factor-USUBJID ;
        crnd-dimension:procedure    code:procedure-countdistinct ;
        crnd-dimension:saffl        code:saffl-Y ;
        crnd-dimension:trta         code:trta-Xanomeline_Low_Dose ;
        crnd-measure:measure        "1"^^xsd:int .

ds:obs388  a                        qb:Observation ;
        rdfs:label                  "388" ;
        qb:dataSet                  ds:dataset-AE ;
        crnd-attribute:denominator  "_NULL_" ;
        crnd-attribute:unit         "_NULL_"^^xsd:string ;
        crnd-dimension:aedecod      code:aedecod-WOLFF-PARKINSON-WHITE_SYNDROME ;
        crnd-dimension:aesoc        code:aesoc-CARDIAC_DISORDERS ;
        crnd-dimension:factor       code:factor-quantity ;
        crnd-dimension:procedure    code:procedure-count ;
        crnd-dimension:saffl        code:saffl-Y ;
        crnd-dimension:trta         code:trta-Xanomeline_Low_Dose ;
        crnd-measure:measure        "2"^^xsd:int .

ds:obs135  a                        qb:Observation ;
        rdfs:label                  "135" ;
        qb:dataSet                  ds:dataset-AE ;
        crnd-attribute:denominator  "_NULL_" ;
        crnd-attribute:unit         "_NULL_"^^xsd:string ;
        crnd-dimension:aedecod      code:aedecod-BUNDLE_BRANCH_BLOCK_RIGHT ;
        crnd-dimension:aesoc        code:aesoc-CARDIAC_DISORDERS ;
        crnd-dimension:factor       code:factor-quantity ;
        crnd-dimension:procedure    code:procedure-count ;
        crnd-dimension:saffl        code:saffl-Y ;
        crnd-dimension:trta         code:trta-Placebo ;
        crnd-measure:measure        "2"^^xsd:int .

ds:obs854  a                        qb:Observation ;
        rdfs:label                  "854" ;
        qb:dataSet                  ds:dataset-AE ;
        crnd-attribute:denominator  "_NULL_" ;
        crnd-attribute:unit         "_NULL_"^^xsd:string ;
        crnd-dimension:aedecod      code:aedecod-DYSPNOEA ;
        crnd-dimension:aesoc        code:aesoc-RESPIRATORY__THORACIC_AND_MEDIASTINAL_DISORDERS ;
        crnd-dimension:factor       code:factor-USUBJID ;
        crnd-dimension:procedure    code:procedure-countdistinct ;
        crnd-dimension:saffl        code:saffl-Y ;
        crnd-dimension:trta         code:trta-Xanomeline_Low_Dose ;
        crnd-measure:measure        "1"^^xsd:int .

code:aedecod-EYE_PRURITUS
        a                  code:Aedecod , skos:Concept ;
        rdfs:comment       "Coded values from data source. No reconciliation against another source"@en ;
        skos:inScheme      code:aedecod ;
        skos:prefLabel     "EYE PRURITUS" ;
        skos:topConceptOf  code:aedecod .

ds:obs601  a                        qb:Observation ;
        rdfs:label                  "601" ;
        qb:dataSet                  ds:dataset-AE ;
