"trta","saffl","aesoc","aedecod","procedure","factor","measure","unit","denominator"
"Placebo","Y","_ALL_","_ALL_","count","quantity",301,"_NULL_","_NULL_"
"Xanomeline High Dose","Y","_ALL_","_ALL_","count","quantity",455,"_NULL_","_NULL_"
"Xanomeline Low Dose","Y","_ALL_","_ALL_","count","quantity",435,"_NULL_","_NULL_"
"Placebo","Y","_ALL_","_ALL_","countdistinct","USUBJID",69,"_NULL_","_NULL_"
"Xanomeline High Dose","Y","_ALL_","_ALL_","countdistinct","USUBJID",79,"_NULL_","_NULL_"
"Xanomeline Low Dose","Y","_ALL_","_ALL_","countdistinct","USUBJID",77,"_NULL_","_NULL_"
"Placebo","Y","CARDIAC DISORDERS","_ALL_","count","quantity",27,"_NULL_","_NULL_"
"Placebo","Y","EAR AND LABYRINTH DISORDERS","_ALL_","count","quantity",2,"_NULL_","_NULL_"
"Placebo","Y","EYE DISORDERS","_ALL_","count","quantity",8,"_NULL_","_NULL_"
"Placebo","Y","GASTROINTESTINAL DISORDERS","_ALL_","count","quantity",26,"_NULL_","_NULL_"
"Placebo","Y","GENERAL DISORDERS AND ADMINISTRATION SITE CONDITIONS","_ALL_","count","quantity",48,"_NULL_","_NULL_"
"Placebo","Y","HEPATOBILIARY DISORDERS","_ALL_","count","quantity",1,"_NULL_","_NULL_"
"Placebo","Y","INFECTIONS AND INFESTATIONS","_ALL_","count","quantity",35,"_NULL_","_NULL_"
"Placebo","Y","INJURY, POISONING AND PROCEDURAL COMPLICATIONS","_ALL_","count","quantity",9,"_NULL_","_NULL_"
"Placebo","Y","INVESTIGATIONS","_ALL_","count","quantity",19,"_NULL_","_NULL_"
"Placebo","Y","METABOLISM AND NUTRITION DISORDERS","_ALL_","count","quantity",8,"_NULL_","_NULL_"
"Placebo","Y","MUSCULOSKELETAL AND CONNECTIVE TISSUE DISORDERS","_ALL_","count","quantity",8,"_NULL_","_NULL_"
"Placebo","Y","NERVOUS SYSTEM DISORDERS","_ALL_","count","quantity",16,"_NULL_","_NULL_"
"Placebo","Y","PSYCHIATRIC DISORDERS","_ALL_","count","quantity",14,"_NULL_","_NULL_"
"Placebo","Y","RENAL AND URINARY DISORDERS","_ALL_","count","quantity",5,"_NULL_","_NULL_"
"Placebo","Y","REPRODUCTIVE SYSTEM AND BREAST DISORDERS","_ALL_","count","quantity",4,"_NULL_","_NULL_"
"Placebo","Y","RESPIRATORY, THORACIC AND MEDIASTINAL DISORDERS","_ALL_","count","quantity",15,"_NULL_","_NULL_"
"Placebo","Y","SKIN AND SUBCUTANEOUS TISSUE DISORDERS","_ALL_","count","quantity",47,"_NULL_","_NULL_"
"Placebo","Y","SURGICAL AND MEDICAL PROCEDURES","_ALL_","count","quantity",2,"_NULL_","_NULL_"
"Placebo","Y","VASCULAR DISORDERS","_ALL_","count","quantity",7,"_NULL_","_NULL_"
"Xanomeline High Dose","Y","CARDIAC DISORDERS","_ALL_","count","quantity",34,"_NULL_","_NULL_"
"Xanomeline High Dose","Y","CONGENITAL, FAMILIAL AND GENETIC DISORDERS","_ALL_","count","quantity",2,"_NULL_","_NULL_"
"Xanomeline High Dose","Y","EAR AND LABYRINTH DISORDERS","_ALL_","count","quantity",1,"_NULL_","_NULL_"
"Xanomeline High Dose","Y","EYE DISORDERS","_ALL_","count","quantity",2,"_NULL_","_NULL_"
"Xanomeline High Dose","Y","GASTROINTESTINAL DISORDERS","_ALL_","count","quantity",37,"_NULL_","_NULL_"
"Xanomeline High Dose","Y","GENERAL DISORDERS AND ADMINISTRATION SITE CONDITIONS","_ALL_","count","quantity",124,"_NULL_","_NULL_"
"Xanomeline High Dose","Y","IMMUNE SYSTEM DISORDERS","_ALL_","count","quantity",1,"_NULL_","_NULL_"
"Xanomeline High Dose","Y","INFECTIONS AND INFESTATIONS","_ALL_","count","quantity",20,"_NULL_","_NULL_"
"Xanomeline High Dose","Y","INJURY, POISONING AND PROCEDURAL COMPLICATIONS","_ALL_","count","quantity",8,"_NULL_","_NULL_"
"Xanomeline High Dose","Y","INVESTIGATIONS","_ALL_","count","quantity",8,"_NULL_","_NULL_"
"Xanomeline High Dose","Y","METABOLISM AND NUTRITION DISORDERS","_ALL_","count","quantity",5,"_NULL_","_NULL_"
"Xanomeline High Dose","Y","MUSCULOSKELETAL AND CONNECTIVE TISSUE DISORDERS","_ALL_","count","quantity",11,"_NULL_","_NULL_"
"Xanomeline High Dose","Y","NEOPLASMS BENIGN, MALIGNANT AND UNSPECIFIED (INCL CYSTS AND POLYPS)","_ALL_","count","quantity",1,"_NULL_","_NULL_"
"Xanomeline High Dose","Y","NERVOUS SYSTEM DISORDERS","_ALL_","count","quantity",45,"_NULL_","_NULL_"
"Xanomeline High Dose","Y","PSYCHIATRIC DISORDERS","_ALL_","count","quantity",12,"_NULL_","_NULL_"
"Xanomeline High Dose","Y","RENAL AND URINARY DISORDERS","_ALL_","count","quantity",4,"_NULL_","_NULL_"
"Xanomeline High Dose","Y","REPRODUCTIVE SYSTEM AND BREAST DISORDERS","_ALL_","count","quantity",1,"_NULL_","_NULL_"
"Xanomeline High Dose","Y","RESPIRATORY, THORACIC AND MEDIASTINAL DISORDERS","_ALL_","count","quantity",22,"_NULL_","_NULL_"
"Xanomeline High Dose","Y","SKIN AND SUBCUTANEOUS TISSUE DISORDERS","_ALL_","count","quantity",111,"_NULL_","_NULL_"
"Xanomeline High Dose","Y","SOCIAL CIRCUMSTANCES","_ALL_","count","quantity",1,"_NULL_","_NULL_"
"Xanomeline High Dose","Y","SURGICAL AND MEDICAL PROCEDURES","_ALL_","count","quantity",2,"_NULL_","_NULL_"
"Xanomeline High Dose","Y","VASCULAR DISORDERS","_ALL_","count","quantity",3,"_NULL_","_NULL_"
"Xanomeline Low Dose","Y","CARDIAC DISORDERS","_ALL_","count","quantity",30,"_NULL_","_NULL_"
"Xanomeline Low Dose","Y","CONGENITAL, FAMILIAL AND GENETIC DISORDERS","_ALL_","count","quantity",1,"_NULL_","_NULL_"
"Xanomeline Low Dose","Y","EAR AND LABYRINTH DISORDERS","_ALL_","count","quantity",3,"_NULL_","_NULL_"
"Xanomeline Low Dose","Y","EYE DISORDERS","_ALL_","count","quantity",2,"_NULL_","_NULL_"
"Xanomeline Low Dose","Y","GASTROINTESTINAL DISORDERS","_ALL_","count","quantity",24,"_NULL_","_NULL_"
"Xanomeline Low Dose","Y","GENERAL DISORDERS AND ADMINISTRATION SITE CONDITIONS","_ALL_","count","quantity",120,"_NULL_","_NULL_"
"Xanomeline Low Dose","Y","IMMUNE SYSTEM DISORDERS","_ALL_","count","quantity",2,"_NULL_","_NULL_"
"Xanomeline Low Dose","Y","INFECTIONS AND INFESTATIONS","_ALL_","count","quantity",18,"_NULL_","_NULL_"
"Xanomeline Low Dose","Y","INJURY, POISONING AND PROCEDURAL COMPLICATIONS","_ALL_","count","quantity",12,"_NULL_","_NULL_"
"Xanomeline Low Dose","Y","INVESTIGATIONS","_ALL_","count","quantity",13,"_NULL_","_NULL_"
"Xanomeline Low Dose","Y","METABOLISM AND NUTRITION DISORDERS","_ALL_","count","quantity",1,"_NULL_","_NULL_"
"Xanomeline Low Dose","Y","MUSCULOSKELETAL AND CONNECTIVE TISSUE DISORDERS","_ALL_","count","quantity",10,"_NULL_","_NULL_"
"Xanomeline Low Dose","Y","NEOPLASMS BENIGN, MALIGNANT AND UNSPECIFIED (INCL CYSTS AND POLYPS)","_ALL_","count","quantity",3,"_NULL_","_NULL_"
"Xanomeline Low Dose","Y","NERVOUS SYSTEM DISORDERS","_ALL_","count","quantity",40,"_NULL_","_NULL_"
"Xanomeline Low Dose","Y","PSYCHIATRIC DISORDERS","_ALL_","count","quantity",14,"_NULL_","_NULL_"
"Xanomeline Low Dose","Y","RENAL AND URINARY DISORDERS","_ALL_","count","quantity",4,"_NULL_","_NULL_"
"Xanomeline Low Dose","Y","RESPIRATORY, THORACIC AND MEDIASTINAL DISORDERS","_ALL_","count","quantity",16,"_NULL_","_NULL_"
"Xanomeline Low Dose","Y","SKIN AND SUBCUTANEOUS TISSUE DISORDERS","_ALL_","count","quantity",118,"_NULL_","_NULL_"
"Xanomeline Low Dose","Y","SURGICAL AND MEDICAL PROCEDURES","_ALL_","count","quantity",1,"_NULL_","_NULL_"
"Xanomeline Low Dose","Y","VASCULAR DISORDERS","_ALL_","count","quantity",3,"_NULL_","_NULL_"
"Placebo","Y","CARDIAC DISORDERS","_ALL_","countdistinct","USUBJID",13,"_NULL_","_NULL_"
"Placebo","Y","EAR AND LABYRINTH DISORDERS","_ALL_","countdistinct","USUBJID",1,"_NULL_","_NULL_"
"Placebo","Y","EYE DISORDERS","_ALL_","countdistinct","USUBJID",4,"_NULL_","_NULL_"
"Placebo","Y","GASTROINTESTINAL DISORDERS","_ALL_","countdistinct","USUBJID",17,"_NULL_","_NULL_"
"Placebo","Y","GENERAL DISORDERS AND ADMINISTRATION SITE CONDITIONS","_ALL_","countdistinct","USUBJID",21,"_NULL_","_NULL_"
"Placebo","Y","HEPATOBILIARY DISORDERS","_ALL_","countdistinct","USUBJID",1,"_NULL_","_NULL_"
"Placebo","Y","INFECTIONS AND INFESTATIONS","_ALL_","countdistinct","USUBJID",16,"_NULL_","_NULL_"
"Placebo","Y","INJURY, POISONING AND PROCEDURAL COMPLICATIONS","_ALL_","countdistinct","USUBJID",4,"_NULL_","_NULL_"
"Placebo","Y","INVESTIGATIONS","_ALL_","countdistinct","USUBJID",10,"_NULL_","_NULL_"
"Placebo","Y","METABOLISM AND NUTRITION DISORDERS","_ALL_","countdistinct","USUBJID",6,"_NULL_","_NULL_"
"Placebo","Y","MUSCULOSKELETAL AND CONNECTIVE TISSUE DISORDERS","_ALL_","countdistinct","USUBJID",5,"_NULL_","_NULL_"
"Placebo","Y","NERVOUS SYSTEM DISORDERS","_ALL_","countdistinct","USUBJID",12,"_NULL_","_NULL_"
"Placebo","Y","PSYCHIATRIC DISORDERS","_ALL_","countdistinct","USUBJID",10,"_NULL_","_NULL_"
"Placebo","Y","RENAL AND URINARY DISORDERS","_ALL_","countdistinct","USUBJID",4,"_NULL_","_NULL_"
"Placebo","Y","REPRODUCTIVE SYSTEM AND BREAST DISORDERS","_ALL_","countdistinct","USUBJID",2,"_NULL_","_NULL_"
"Placebo","Y","RESPIRATORY, THORACIC AND MEDIASTINAL DISORDERS","_ALL_","countdistinct","USUBJID",10,"_NULL_","_NULL_"
"Placebo","Y","SKIN AND SUBCUTANEOUS TISSUE DISORDERS","_ALL_","countdistinct","USUBJID",21,"_NULL_","_NULL_"
"Placebo","Y","SURGICAL AND MEDICAL PROCEDURES","_ALL_","countdistinct","USUBJID",2,"_NULL_","_NULL_"
"Placebo","Y","VASCULAR DISORDERS","_ALL_","countdistinct","USUBJID",3,"_NULL_","_NULL_"
"Xanomeline High Dose","Y","CARDIAC DISORDERS","_ALL_","countdistinct","USUBJID",18,"_NULL_","_NULL_"
"Xanomeline High Dose","Y","CONGENITAL, FAMILIAL AND GENETIC DISORDERS","_ALL_","countdistinct","USUBJID",2,"_NULL_","_NULL_"
"Xanomeline High Dose","Y","EAR AND LABYRINTH DISORDERS","_ALL_","countdistinct","USUBJID",1,"_NULL_","_NULL_"
"Xanomeline High Dose","Y","EYE DISORDERS","_ALL_","countdistinct","USUBJID",1,"_NULL_","_NULL_"
"Xanomeline High Dose","Y","GASTROINTESTINAL DISORDERS","_ALL_","countdistinct","USUBJID",21,"_NULL_","_NULL_"
"Xanomeline High Dose","Y","GENERAL DISORDERS AND ADMINISTRATION SITE CONDITIONS","_ALL_","countdistinct","USUBJID",40,"_NULL_","_NULL_"
"Xanomeline High Dose","Y","IMMUNE SYSTEM DISORDERS","_ALL_","countdistinct","USUBJID",1,"_NULL_","_NULL_"
"Xanomeline High Dose","Y","INFECTIONS AND INFESTATIONS","_ALL_","countdistinct","USUBJID",13,"_NULL_","_NULL_"
"Xanomeline High Dose","Y","INJURY, POISONING AND PROCEDURAL COMPLICATIONS","_ALL_","countdistinct","USUBJID",5,"_NULL_","_NULL_"
"Xanomeline High Dose","Y","INVESTIGATIONS","_ALL_","countdistinct","USUBJID",6,"_NULL_","_NULL_"
"Xanomeline High Dose","Y","METABOLISM AND NUTRITION DISORDERS","_ALL_","countdistinct","USUBJID",3,"_NULL_","_NULL_"
"Xanomeline High Dose","Y","MUSCULOSKELETAL AND CONNECTIVE TISSUE DISORDERS","_ALL_","countdistinct","USUBJID",8,"_NULL_","_NULL_"
"Xanomeline High Dose","Y","NEOPLASMS BENIGN, MALIGNANT AND UNSPECIFIED (INCL CYSTS AND POLYPS)","_ALL_","countdistinct","USUBJID",1,"_NULL_","_NULL_"
"Xanomeline High Dose","Y","NERVOUS SYSTEM DISORDERS","_ALL_","countdistinct","USUBJID",27,"_NULL_","_NULL_"
"Xanomeline High Dose","Y","PSYCHIATRIC DISORDERS","_ALL_","countdistinct","USUBJID",9,"_NULL_","_NULL_"
"Xanomeline High Dose","Y","RENAL AND URINARY DISORDERS","_ALL_","countdistinct","USUBJID",3,"_NULL_","_NULL_"
"Xanomeline High Dose","Y","REPRODUCTIVE SYSTEM AND BREAST DISORDERS","_ALL_","countdistinct","USUBJID",1,"_NULL_","_NULL_"
"Xanomeline High Dose","Y","RESPIRATORY, THORACIC AND MEDIASTINAL DISORDERS","_ALL_","countdistinct","USUBJID",10,"_NULL_","_NULL_"
"Xanomeline High Dose","Y","SKIN AND SUBCUTANEOUS TISSUE DISORDERS","_ALL_","countdistinct","USUBJID",42,"_NULL_","_NULL_"
"Xanomeline High Dose","Y","SOCIAL CIRCUMSTANCES","_ALL_","countdistinct","USUBJID",1,"_NULL_","_NULL_"
"Xanomeline High Dose","Y","SURGICAL AND MEDICAL PROCEDURES","_ALL_","countdistinct","USUBJID",2,"_NULL_","_NULL_"
"Xanomeline High Dose","Y","VASCULAR DISORDERS","_ALL_","countdistinct","USUBJID",2,"_NULL_","_NULL_"
"Xanomeline Low Dose","Y","CARDIAC DISORDERS","_ALL_","countdistinct","USUBJID",13,"_NULL_","_NULL_"
"Xanomeline Low Dose","Y","CONGENITAL, FAMILIAL AND GENETIC DISORDERS","_ALL_","countdistinct","USUBJID",1,"_NULL_","_NULL_"
"Xanomeline Low Dose","Y","EAR AND LABYRINTH DISORDERS","_ALL_","countdistinct","USUBJID",2,"_NULL_","_NULL_"
"Xanomeline Low Dose","Y","EYE DISORDERS","_ALL_","countdistinct","USUBJID",2,"_NULL_","_NULL_"
"Xanomeline Low Dose","Y","GASTROINTESTINAL DISORDERS","_ALL_","countdistinct","USUBJID",15,"_NULL_","_NULL_"
"Xanomeline Low Dose","Y","GENERAL DISORDERS AND ADMINISTRATION SITE CONDITIONS","_ALL_","countdistinct","USUBJID",47,"_NULL_","_NULL_"
"Xanomeline Low Dose","Y","IMMUNE SYSTEM DISORDERS","_ALL_","countdistinct","USUBJID",1,"_NULL_","_NULL_"
"Xanomeline Low Dose","Y","INFECTIONS AND INFESTATIONS","_ALL_","countdistinct","USUBJID",10,"_NULL_","_NULL_"
"Xanomeline Low Dose","Y","INJURY, POISONING AND PROCEDURAL COMPLICATIONS","_ALL_","countdistinct","USUBJID",5,"_NULL_","_NULL_"
"Xanomeline Low Dose","Y","INVESTIGATIONS","_ALL_","countdistinct","USUBJID",7,"_NULL_","_NULL_"
"Xanomeline Low Dose","Y","METABOLISM AND NUTRITION DISORDERS","_ALL_","countdistinct","USUBJID",1,"_NULL_","_NULL_"
"Xanomeline Low Dose","Y","MUSCULOSKELETAL AND CONNECTIVE TISSUE DISORDERS","_ALL_","countdistinct","USUBJID",7,"_NULL_","_NULL_"
"Xanomeline Low Dose","Y","NEOPLASMS BENIGN, MALIGNANT AND UNSPECIFIED (INCL CYSTS AND POLYPS)","_ALL_","countdistinct","USUBJID",2,"_NULL_","_NULL_"
"Xanomeline Low Dose","Y","NERVOUS SYSTEM DISORDERS","_ALL_","countdistinct","USUBJID",20,"_NULL_","_NULL_"
"Xanomeline Low Dose","Y","PSYCHIATRIC DISORDERS","_ALL_","countdistinct","USUBJID",10,"_NULL_","_NULL_"
"Xanomeline Low Dose","Y","RENAL AND URINARY DISORDERS","_ALL_","countdistinct","USUBJID",4,"_NULL_","_NULL_"
"Xanomeline Low Dose","Y","RESPIRATORY, THORACIC AND MEDIASTINAL DISORDERS","_ALL_","countdistinct","USUBJID",10,"_NULL_","_NULL_"
"Xanomeline Low Dose","Y","SKIN AND SUBCUTANEOUS TISSUE DISORDERS","_ALL_","countdistinct","USUBJID",42,"_NULL_","_NULL_"
"Xanomeline Low Dose","Y","SURGICAL AND MEDICAL PROCEDURES","_ALL_","countdistinct","USUBJID",1,"_NULL_","_NULL_"
"Xanomeline Low Dose","Y","VASCULAR DISORDERS","_ALL_","countdistinct","USUBJID",3,"_NULL_","_NULL_"
"Placebo","Y","CARDIAC DISORDERS","ATRIAL FIBRILLATION","count","quantity",1,"_NULL_","_NULL_"
"Placebo","Y","CARDIAC DISORDERS","ATRIAL HYPERTROPHY","count","quantity",2,"_NULL_","_NULL_"
"Placebo","Y","CARDIAC DISORDERS","ATRIOVENTRICULAR BLOCK FIRST DEGREE","count","quantity",1,"_NULL_","_NULL_"
"Placebo","Y","CARDIAC DISORDERS","ATRIOVENTRICULAR BLOCK SECOND DEGREE","count","quantity",2,"_NULL_","_NULL_"
"Placebo","Y","CARDIAC DISORDERS","BRADYCARDIA","count","quantity",4,"_NULL_","_NULL_"
"Placebo","Y","CARDIAC DISORDERS","BUNDLE BRANCH BLOCK LEFT","count","quantity",1,"_NULL_","_NULL_"
"Placebo","Y","CARDIAC DISORDERS","BUNDLE BRANCH BLOCK RIGHT","count","quantity",2,"_NULL_","_NULL_"
"Placebo","Y","CARDIAC DISORDERS","CARDIAC FAILURE CONGESTIVE","count","quantity",1,"_NULL_","_NULL_"
"Placebo","Y","CARDIAC DISORDERS","MYOCARDIAL INFARCTION","count","quantity",4,"_NULL_","_NULL_"
"Placebo","Y","CARDIAC DISORDERS","SINUS ARRHYTHMIA","count","quantity",2,"_NULL_","_NULL_"
"Placebo","Y","CARDIAC DISORDERS","SINUS BRADYCARDIA","count","quantity",2,"_NULL_","_NULL_"
"Placebo","Y","CARDIAC DISORDERS","SUPRAVENTRICULAR EXTRASYSTOLES","count","quantity",2,"_NULL_","_NULL_"
"Placebo","Y","CARDIAC DISORDERS","TACHYCARDIA","count","quantity",2,"_NULL_","_NULL_"
"Placebo","Y","CARDIAC DISORDERS","VENTRICULAR HYPERTROPHY","count","quantity",1,"_NULL_","_NULL_"
"Placebo","Y","EAR AND LABYRINTH DISORDERS","EAR PAIN","count","quantity",2,"_NULL_","_NULL_"
"Placebo","Y","EYE DISORDERS","CONJUNCTIVITIS","count","quantity",4,"_NULL_","_NULL_"
"Placebo","Y","EYE DISORDERS","EYE ALLERGY","count","quantity",1,"_NULL_","_NULL_"
"Placebo","Y","EYE DISORDERS","EYE PRURITUS","count","quantity",1,"_NULL_","_NULL_"
"Placebo","Y","EYE DISORDERS","EYE SWELLING","count","quantity",1,"_NULL_","_NULL_"
"Placebo","Y","EYE DISORDERS","GLAUCOMA","count","quantity",1,"_NULL_","_NULL_"
"Placebo","Y","GASTROINTESTINAL DISORDERS","ABDOMINAL PAIN","count","quantity",1,"_NULL_","_NULL_"
"Placebo","Y","GASTROINTESTINAL DISORDERS","CONSTIPATION","count","quantity",1,"_NULL_","_NULL_"
"Placebo","Y","GASTROINTESTINAL DISORDERS","DIARRHOEA","count","quantity",10,"_NULL_","_NULL_"
"Placebo","Y","GASTROINTESTINAL DISORDERS","DYSPEPSIA","count","quantity",2,"_NULL_","_NULL_"
"Placebo","Y","GASTROINTESTINAL DISORDERS","FLATULENCE","count","quantity",2,"_NULL_","_NULL_"
"Placebo","Y","GASTROINTESTINAL DISORDERS","GASTROOESOPHAGEAL REFLUX DISEASE","count","quantity",1,"_NULL_","_NULL_"
"Placebo","Y","GASTROINTESTINAL DISORDERS","GLOSSITIS","count","quantity",1,"_NULL_","_NULL_"
"Placebo","Y","GASTROINTESTINAL DISORDERS","HIATUS HERNIA","count","quantity",2,"_NULL_","_NULL_"
"Placebo","Y","GASTROINTESTINAL DISORDERS","NAUSEA","count","quantity",3,"_NULL_","_NULL_"
"Placebo","Y","GASTROINTESTINAL DISORDERS","VOMITING","count","quantity",3,"_NULL_","_NULL_"
"Placebo","Y","GENERAL DISORDERS AND ADMINISTRATION SITE CONDITIONS","APPLICATION SITE DERMATITIS","count","quantity",9,"_NULL_","_NULL_"
"Placebo","Y","GENERAL DISORDERS AND ADMINISTRATION SITE CONDITIONS","APPLICATION SITE ERYTHEMA","count","quantity",3,"_NULL_","_NULL_"
"Placebo","Y","GENERAL DISORDERS AND ADMINISTRATION SITE CONDITIONS","APPLICATION SITE INDURATION","count","quantity",1,"_NULL_","_NULL_"
"Placebo","Y","GENERAL DISORDERS AND ADMINISTRATION SITE CONDITIONS","APPLICATION SITE IRRITATION","count","quantity",7,"_NULL_","_NULL_"
"Placebo","Y","GENERAL DISORDERS AND ADMINISTRATION SITE CONDITIONS","APPLICATION SITE PRURITUS","count","quantity",10,"_NULL_","_NULL_"
"Placebo","Y","GENERAL DISORDERS AND ADMINISTRATION SITE CONDITIONS","APPLICATION SITE REACTION","count","quantity",2,"_NULL_","_NULL_"
"Placebo","Y","GENERAL DISORDERS AND ADMINISTRATION SITE CONDITIONS","APPLICATION SITE VESICLES","count","quantity",2,"_NULL_","_NULL_"
"Placebo","Y","GENERAL DISORDERS AND ADMINISTRATION SITE CONDITIONS","ASTHENIA","count","quantity",2,"_NULL_","_NULL_"
"Placebo","Y","GENERAL DISORDERS AND ADMINISTRATION SITE CONDITIONS","CHILLS","count","quantity",3,"_NULL_","_NULL_"
"Placebo","Y","GENERAL DISORDERS AND ADMINISTRATION SITE CONDITIONS","FATIGUE","count","quantity",2,"_NULL_","_NULL_"
"Placebo","Y","GENERAL DISORDERS AND ADMINISTRATION SITE CONDITIONS","OEDEMA PERIPHERAL","count","quantity",5,"_NULL_","_NULL_"
"Placebo","Y","GENERAL DISORDERS AND ADMINISTRATION SITE CONDITIONS","PYREXIA","count","quantity",2,"_NULL_","_NULL_"
"Placebo","Y","HEPATOBILIARY DISORDERS","HYPERBILIRUBINAEMIA","count","quantity",1,"_NULL_","_NULL_"
"Placebo","Y","INFECTIONS AND INFESTATIONS","BRONCHITIS","count","quantity",1,"_NULL_","_NULL_"
"Placebo","Y","INFECTIONS AND INFESTATIONS","CERVICITIS","count","quantity",2,"_NULL_","_NULL_"
"Placebo","Y","INFECTIONS AND INFESTATIONS","CYSTITIS","count","quantity",1,"_NULL_","_NULL_"
"Placebo","Y","INFECTIONS AND INFESTATIONS","EAR INFECTION","count","quantity",4,"_NULL_","_NULL_"
"Placebo","Y","INFECTIONS AND INFESTATIONS","GASTROENTERITIS VIRAL","count","quantity",1,"_NULL_","_NULL_"
"Placebo","Y","INFECTIONS AND INFESTATIONS","INFLUENZA","count","quantity",2,"_NULL_","_NULL_"
"Placebo","Y","INFECTIONS AND INFESTATIONS","LOCALISED INFECTION","count","quantity",2,"_NULL_","_NULL_"
"Placebo","Y","INFECTIONS AND INFESTATIONS","NASOPHARYNGITIS","count","quantity",4,"_NULL_","_NULL_"
"Placebo","Y","INFECTIONS AND INFESTATIONS","UPPER RESPIRATORY TRACT INFECTION","count","quantity",12,"_NULL_","_NULL_"
"Placebo","Y","INFECTIONS AND INFESTATIONS","URINARY TRACT INFECTION","count","quantity",4,"_NULL_","_NULL_"
"Placebo","Y","INFECTIONS AND INFESTATIONS","VAGINAL MYCOSIS","count","quantity",2,"_NULL_","_NULL_"
"Placebo","Y","INJURY, POISONING AND PROCEDURAL COMPLICATIONS","CONTUSION","count","quantity",1,"_NULL_","_NULL_"
"Placebo","Y","INJURY, POISONING AND PROCEDURAL COMPLICATIONS","EXCORIATION","count","quantity",3,"_NULL_","_NULL_"
"Placebo","Y","INJURY, POISONING AND PROCEDURAL COMPLICATIONS","FALL","count","quantity",2,"_NULL_","_NULL_"
"Placebo","Y","INJURY, POISONING AND PROCEDURAL COMPLICATIONS","HIP FRACTURE","count","quantity",2,"_NULL_","_NULL_"
"Placebo","Y","INJURY, POISONING AND PROCEDURAL COMPLICATIONS","SKIN LACERATION","count","quantity",1,"_NULL_","_NULL_"
"Placebo","Y","INVESTIGATIONS","BLOOD ALKALINE PHOSPHATASE INCREASED","count","quantity",1,"_NULL_","_NULL_"
"Placebo","Y","INVESTIGATIONS","BLOOD CREATINE PHOSPHOKINASE INCREASED","count","quantity",2,"_NULL_","_NULL_"
"Placebo","Y","INVESTIGATIONS","BLOOD URINE PRESENT","count","quantity",1,"_NULL_","_NULL_"
"Placebo","Y","INVESTIGATIONS","CYSTOSCOPY","count","quantity",1,"_NULL_","_NULL_"
"Placebo","Y","INVESTIGATIONS","ELECTROCARDIOGRAM ST SEGMENT DEPRESSION","count","quantity",4,"_NULL_","_NULL_"
"Placebo","Y","INVESTIGATIONS","ELECTROCARDIOGRAM T WAVE AMPLITUDE DECREASED","count","quantity",1,"_NULL_","_NULL_"
"Placebo","Y","INVESTIGATIONS","ELECTROCARDIOGRAM T WAVE INVERSION","count","quantity",3,"_NULL_","_NULL_"
"Placebo","Y","INVESTIGATIONS","HEART RATE INCREASED","count","quantity",2,"_NULL_","_NULL_"
"Placebo","Y","INVESTIGATIONS","HEART RATE IRREGULAR","count","quantity",4,"_NULL_","_NULL_"
"Placebo","Y","METABOLISM AND NUTRITION DISORDERS","DECREASED APPETITE","count","quantity",2,"_NULL_","_NULL_"
"Placebo","Y","METABOLISM AND NUTRITION DISORDERS","DEHYDRATION","count","quantity",1,"_NULL_","_NULL_"
"Placebo","Y","METABOLISM AND NUTRITION DISORDERS","DIABETES MELLITUS","count","quantity",1,"_NULL_","_NULL_"
"Placebo","Y","METABOLISM AND NUTRITION DISORDERS","FOOD CRAVING","count","quantity",1,"_NULL_","_NULL_"
"Placebo","Y","METABOLISM AND NUTRITION DISORDERS","HYPONATRAEMIA","count","quantity",1,"_NULL_","_NULL_"
"Placebo","Y","METABOLISM AND NUTRITION DISORDERS","INCREASED APPETITE","count","quantity",2,"_NULL_","_NULL_"
"Placebo","Y","MUSCULOSKELETAL AND CONNECTIVE TISSUE DISORDERS","ARTHRALGIA","count","quantity",1,"_NULL_","_NULL_"
"Placebo","Y","MUSCULOSKELETAL AND CONNECTIVE TISSUE DISORDERS","ARTHRITIS","count","quantity",2,"_NULL_","_NULL_"
"Placebo","Y","MUSCULOSKELETAL AND CONNECTIVE TISSUE DISORDERS","BACK PAIN","count","quantity",2,"_NULL_","_NULL_"
"Placebo","Y","MUSCULOSKELETAL AND CONNECTIVE TISSUE DISORDERS","PAIN IN EXTREMITY","count","quantity",1,"_NULL_","_NULL_"
"Placebo","Y","MUSCULOSKELETAL AND CONNECTIVE TISSUE DISORDERS","SHOULDER PAIN","count","quantity",2,"_NULL_","_NULL_"
"Placebo","Y","NERVOUS SYSTEM DISORDERS","DIZZINESS","count","quantity",3,"_NULL_","_NULL_"
"Placebo","Y","NERVOUS SYSTEM DISORDERS","HEADACHE","count","quantity",8,"_NULL_","_NULL_"
"Placebo","Y","NERVOUS SYSTEM DISORDERS","PARKINSON'S DISEASE","count","quantity",1,"_NULL_","_NULL_"
"Placebo","Y","NERVOUS SYSTEM DISORDERS","PSYCHOMOTOR HYPERACTIVITY","count","quantity",1,"_NULL_","_NULL_"
"Placebo","Y","NERVOUS SYSTEM DISORDERS","SOMNOLENCE","count","quantity",3,"_NULL_","_NULL_"
"Placebo","Y","PSYCHIATRIC DISORDERS","AGITATION","count","quantity",2,"_NULL_","_NULL_"
"Placebo","Y","PSYCHIATRIC DISORDERS","ANXIETY","count","quantity",2,"_NULL_","_NULL_"
"Placebo","Y","PSYCHIATRIC DISORDERS","COMPLETED SUICIDE","count","quantity",1,"_NULL_","_NULL_"
"Placebo","Y","PSYCHIATRIC DISORDERS","CONFUSIONAL STATE","count","quantity",2,"_NULL_","_NULL_"
"Placebo","Y","PSYCHIATRIC DISORDERS","DELUSION","count","quantity",1,"_NULL_","_NULL_"
"Placebo","Y","PSYCHIATRIC DISORDERS","DISORIENTATION","count","quantity",1,"_NULL_","_NULL_"
"Placebo","Y","PSYCHIATRIC DISORDERS","INSOMNIA","count","quantity",3,"_NULL_","_NULL_"
"Placebo","Y","PSYCHIATRIC DISORDERS","IRRITABILITY","count","quantity",2,"_NULL_","_NULL_"
"Placebo","Y","RENAL AND URINARY DISORDERS","DYSURIA","count","quantity",1,"_NULL_","_NULL_"
"Placebo","Y","RENAL AND URINARY DISORDERS","MICTURITION URGENCY","count","quantity",1,"_NULL_","_NULL_"
"Placebo","Y","RENAL AND URINARY DISORDERS","NEPHROLITHIASIS","count","quantity",1,"_NULL_","_NULL_"
"Placebo","Y","RENAL AND URINARY DISORDERS","POLLAKIURIA","count","quantity",2,"_NULL_","_NULL_"
"Placebo","Y","REPRODUCTIVE SYSTEM AND BREAST DISORDERS","BENIGN PROSTATIC HYPERPLASIA","count","quantity",2,"_NULL_","_NULL_"
"Placebo","Y","REPRODUCTIVE SYSTEM AND BREAST DISORDERS","PELVIC PAIN","count","quantity",2,"_NULL_","_NULL_"
"Placebo","Y","RESPIRATORY, THORACIC AND MEDIASTINAL DISORDERS","COUGH","count","quantity",4,"_NULL_","_NULL_"
"Placebo","Y","RESPIRATORY, THORACIC AND MEDIASTINAL DISORDERS","DYSPNOEA","count","quantity",1,"_NULL_","_NULL_"
"Placebo","Y","RESPIRATORY, THORACIC AND MEDIASTINAL DISORDERS","EMPHYSEMA","count","quantity",1,"_NULL_","_NULL_"
"Placebo","Y","RESPIRATORY, THORACIC AND MEDIASTINAL DISORDERS","HAEMOPTYSIS","count","quantity",2,"_NULL_","_NULL_"
"Placebo","Y","RESPIRATORY, THORACIC AND MEDIASTINAL DISORDERS","NASAL CONGESTION","count","quantity",3,"_NULL_","_NULL_"
"Placebo","Y","RESPIRATORY, THORACIC AND MEDIASTINAL DISORDERS","POSTNASAL DRIP","count","quantity",2,"_NULL_","_NULL_"
"Placebo","Y","RESPIRATORY, THORACIC AND MEDIASTINAL DISORDERS","RALES","count","quantity",2,"_NULL_","_NULL_"
"Placebo","Y","SKIN AND SUBCUTANEOUS TISSUE DISORDERS","ALOPECIA","count","quantity",1,"_NULL_","_NULL_"
"Placebo","Y","SKIN AND SUBCUTANEOUS TISSUE DISORDERS","COLD SWEAT","count","quantity",3,"_NULL_","_NULL_"
"Placebo","Y","SKIN AND SUBCUTANEOUS TISSUE DISORDERS","DERMATITIS ATOPIC","count","quantity",1,"_NULL_","_NULL_"
"Placebo","Y","SKIN AND SUBCUTANEOUS TISSUE DISORDERS","DRUG ERUPTION","count","quantity",1,"_NULL_","_NULL_"
"Placebo","Y","SKIN AND SUBCUTANEOUS TISSUE DISORDERS","ERYTHEMA","count","quantity",13,"_NULL_","_NULL_"
"Placebo","Y","SKIN AND SUBCUTANEOUS TISSUE DISORDERS","HYPERHIDROSIS","count","quantity",2,"_NULL_","_NULL_"
"Placebo","Y","SKIN AND SUBCUTANEOUS TISSUE DISORDERS","PRURITUS","count","quantity",11,"_NULL_","_NULL_"
"Placebo","Y","SKIN AND SUBCUTANEOUS TISSUE DISORDERS","RASH","count","quantity",9,"_NULL_","_NULL_"
"Placebo","Y","SKIN AND SUBCUTANEOUS TISSUE DISORDERS","SKIN IRRITATION","count","quantity",4,"_NULL_","_NULL_"
"Placebo","Y","SKIN AND SUBCUTANEOUS TISSUE DISORDERS","SKIN ULCER","count","quantity",2,"_NULL_","_NULL_"
"Placebo","Y","SURGICAL AND MEDICAL PROCEDURES","CATARACT OPERATION","count","quantity",1,"_NULL_","_NULL_"
"Placebo","Y","SURGICAL AND MEDICAL PROCEDURES","EYE LASER SURGERY","count","quantity",1,"_NULL_","_NULL_"
"Placebo","Y","VASCULAR DISORDERS","HYPERTENSION","count","quantity",2,"_NULL_","_NULL_"
"Placebo","Y","VASCULAR DISORDERS","HYPOTENSION","count","quantity",3,"_NULL_","_NULL_"
"Placebo","Y","VASCULAR DISORDERS","ORTHOSTATIC HYPOTENSION","count","quantity",2,"_NULL_","_NULL_"
"Xanomeline High Dose","Y","CARDIAC DISORDERS","ATRIAL FIBRILLATION","count","quantity",5,"_NULL_","_NULL_"
"Xanomeline High Dose","Y","CARDIAC DISORDERS","ATRIAL FLUTTER","count","quantity",2,"_NULL_","_NULL_"
"Xanomeline High Dose","Y","CARDIAC DISORDERS","ATRIOVENTRICULAR BLOCK SECOND DEGREE","count","quantity",4,"_NULL_","_NULL_"
"Xanomeline High Dose","Y","CARDIAC DISORDERS","CARDIAC DISORDER","count","quantity",1,"_NULL_","_NULL_"
"Xanomeline High Dose","Y","CARDIAC DISORDERS","MYOCARDIAL INFARCTION","count","quantity",8,"_NULL_","_NULL_"
"Xanomeline High Dose","Y","CARDIAC DISORDERS","SINUS BRADYCARDIA","count","quantity",12,"_NULL_","_NULL_"
"Xanomeline High Dose","Y","CARDIAC DISORDERS","SUPRAVENTRICULAR EXTRASYSTOLES","count","quantity",1,"_NULL_","_NULL_"
"Xanomeline High Dose","Y","CARDIAC DISORDERS","VENTRICULAR EXTRASYSTOLES","count","quantity",1,"_NULL_","_NULL_"
"Xanomeline High Dose","Y","CONGENITAL, FAMILIAL AND GENETIC DISORDERS","VENTRICULAR SEPTAL DEFECT","count","quantity",2,"_NULL_","_NULL_"
"Xanomeline High Dose","Y","EAR AND LABYRINTH DISORDERS","VERTIGO","count","quantity",1,"_NULL_","_NULL_"
"Xanomeline High Dose","Y","EYE DISORDERS","VISION BLURRED","count","quantity",2,"_NULL_","_NULL_"
"Xanomeline High Dose","Y","GASTROINTESTINAL DISORDERS","ABDOMINAL DISCOMFORT","count","quantity",1,"_NULL_","_NULL_"
"Xanomeline High Dose","Y","GASTROINTESTINAL DISORDERS","ABDOMINAL PAIN","count","quantity",2,"_NULL_","_NULL_"
"Xanomeline High Dose","Y","GASTROINTESTINAL DISORDERS","DIARRHOEA","count","quantity",4,"_NULL_","_NULL_"
"Xanomeline High Dose","Y","GASTROINTESTINAL DISORDERS","DYSPEPSIA","count","quantity",1,"_NULL_","_NULL_"
"Xanomeline High Dose","Y","GASTROINTESTINAL DISORDERS","GASTROINTESTINAL HAEMORRHAGE","count","quantity",1,"_NULL_","_NULL_"
"Xanomeline High Dose","Y","GASTROINTESTINAL DISORDERS","NAUSEA","count","quantity",13,"_NULL_","_NULL_"
"Xanomeline High Dose","Y","GASTROINTESTINAL DISORDERS","SALIVARY HYPERSECRETION","count","quantity",5,"_NULL_","_NULL_"
"Xanomeline High Dose","Y","GASTROINTESTINAL DISORDERS","STOMACH DISCOMFORT","count","quantity",1,"_NULL_","_NULL_"
"Xanomeline High Dose","Y","GASTROINTESTINAL DISORDERS","VOMITING","count","quantity",9,"_NULL_","_NULL_"
"Xanomeline High Dose","Y","GENERAL DISORDERS AND ADMINISTRATION SITE CONDITIONS","APPLICATION SITE DERMATITIS","count","quantity",12,"_NULL_","_NULL_"
"Xanomeline High Dose","Y","GENERAL DISORDERS AND ADMINISTRATION SITE CONDITIONS","APPLICATION SITE DISCHARGE","count","quantity",1,"_NULL_","_NULL_"
"Xanomeline High Dose","Y","GENERAL DISORDERS AND ADMINISTRATION SITE CONDITIONS","APPLICATION SITE ERYTHEMA","count","quantity",23,"_NULL_","_NULL_"
"Xanomeline High Dose","Y","GENERAL DISORDERS AND ADMINISTRATION SITE CONDITIONS","APPLICATION SITE IRRITATION","count","quantity",16,"_NULL_","_NULL_"
"Xanomeline High Dose","Y","GENERAL DISORDERS AND ADMINISTRATION SITE CONDITIONS","APPLICATION SITE PAIN","count","quantity",2,"_NULL_","_NULL_"
"Xanomeline High Dose","Y","GENERAL DISORDERS AND ADMINISTRATION SITE CONDITIONS","APPLICATION SITE PERSPIRATION","count","quantity",3,"_NULL_","_NULL_"
"Xanomeline High Dose","Y","GENERAL DISORDERS AND ADMINISTRATION SITE CONDITIONS","APPLICATION SITE PRURITUS","count","quantity",35,"_NULL_","_NULL_"
"Xanomeline High Dose","Y","GENERAL DISORDERS AND ADMINISTRATION SITE CONDITIONS","APPLICATION SITE REACTION","count","quantity",1,"_NULL_","_NULL_"
"Xanomeline High Dose","Y","GENERAL DISORDERS AND ADMINISTRATION SITE CONDITIONS","APPLICATION SITE SWELLING","count","quantity",3,"_NULL_","_NULL_"
"Xanomeline High Dose","Y","GENERAL DISORDERS AND ADMINISTRATION SITE CONDITIONS","APPLICATION SITE URTICARIA","count","quantity",1,"_NULL_","_NULL_"
"Xanomeline High Dose","Y","GENERAL DISORDERS AND ADMINISTRATION SITE CONDITIONS","APPLICATION SITE VESICLES","count","quantity",6,"_NULL_","_NULL_"
"Xanomeline High Dose","Y","GENERAL DISORDERS AND ADMINISTRATION SITE CONDITIONS","ASTHENIA","count","quantity",1,"_NULL_","_NULL_"
"Xanomeline High Dose","Y","GENERAL DISORDERS AND ADMINISTRATION SITE CONDITIONS","CHEST DISCOMFORT","count","quantity",2,"_NULL_","_NULL_"
"Xanomeline High Dose","Y","GENERAL DISORDERS AND ADMINISTRATION SITE CONDITIONS","CHEST PAIN","count","quantity",2,"_NULL_","_NULL_"
"Xanomeline High Dose","Y","GENERAL DISORDERS AND ADMINISTRATION SITE CONDITIONS","CHILLS","count","quantity",1,"_NULL_","_NULL_"
"Xanomeline High Dose","Y","GENERAL DISORDERS AND ADMINISTRATION SITE CONDITIONS","FATIGUE","count","quantity",5,"_NULL_","_NULL_"
"Xanomeline High Dose","Y","GENERAL DISORDERS AND ADMINISTRATION SITE CONDITIONS","FEELING ABNORMAL","count","quantity",1,"_NULL_","_NULL_"
"Xanomeline High Dose","Y","GENERAL DISORDERS AND ADMINISTRATION SITE CONDITIONS","FEELING COLD","count","quantity",1,"_NULL_","_NULL_"
"Xanomeline High Dose","Y","GENERAL DISORDERS AND ADMINISTRATION SITE CONDITIONS","MALAISE","count","quantity",3,"_NULL_","_NULL_"
"Xanomeline High Dose","Y","GENERAL DISORDERS AND ADMINISTRATION SITE CONDITIONS","OEDEMA PERIPHERAL","count","quantity",3,"_NULL_","_NULL_"
"Xanomeline High Dose","Y","GENERAL DISORDERS AND ADMINISTRATION SITE CONDITIONS","PAIN","count","quantity",1,"_NULL_","_NULL_"
"Xanomeline High Dose","Y","GENERAL DISORDERS AND ADMINISTRATION SITE CONDITIONS","PYREXIA","count","quantity",1,"_NULL_","_NULL_"
"Xanomeline High Dose","Y","IMMUNE SYSTEM DISORDERS","SEASONAL ALLERGY","count","quantity",1,"_NULL_","_NULL_"
"Xanomeline High Dose","Y","INFECTIONS AND INFESTATIONS","CYSTITIS","count","quantity",1,"_NULL_","_NULL_"
"Xanomeline High Dose","Y","INFECTIONS AND INFESTATIONS","HORDEOLUM","count","quantity",1,"_NULL_","_NULL_"
"Xanomeline High Dose","Y","INFECTIONS AND INFESTATIONS","INFLUENZA","count","quantity",1,"_NULL_","_NULL_"
"Xanomeline High Dose","Y","INFECTIONS AND INFESTATIONS","LOWER RESPIRATORY TRACT INFECTION","count","quantity",2,"_NULL_","_NULL_"
"Xanomeline High Dose","Y","INFECTIONS AND INFESTATIONS","NASOPHARYNGITIS","count","quantity",8,"_NULL_","_NULL_"
"Xanomeline High Dose","Y","INFECTIONS AND INFESTATIONS","RHINITIS","count","quantity",1,"_NULL_","_NULL_"
"Xanomeline High Dose","Y","INFECTIONS AND INFESTATIONS","UPPER RESPIRATORY TRACT INFECTION","count","quantity",5,"_NULL_","_NULL_"
"Xanomeline High Dose","Y","INFECTIONS AND INFESTATIONS","URINARY TRACT INFECTION","count","quantity",1,"_NULL_","_NULL_"
"Xanomeline High Dose","Y","INJURY, POISONING AND PROCEDURAL COMPLICATIONS","CONTUSION","count","quantity",3,"_NULL_","_NULL_"
"Xanomeline High Dose","Y","INJURY, POISONING AND PROCEDURAL COMPLICATIONS","EXCORIATION","count","quantity",1,"_NULL_","_NULL_"
"Xanomeline High Dose","Y","INJURY, POISONING AND PROCEDURAL COMPLICATIONS","FACIAL BONES FRACTURE","count","quantity",1,"_NULL_","_NULL_"
"Xanomeline High Dose","Y","INJURY, POISONING AND PROCEDURAL COMPLICATIONS","FALL","count","quantity",1,"_NULL_","_NULL_"
"Xanomeline High Dose","Y","INJURY, POISONING AND PROCEDURAL COMPLICATIONS","HIP FRACTURE","count","quantity",2,"_NULL_","_NULL_"
"Xanomeline High Dose","Y","INVESTIGATIONS","BIOPSY","count","quantity",1,"_NULL_","_NULL_"
"Xanomeline High Dose","Y","INVESTIGATIONS","BIOPSY PROSTATE","count","quantity",1,"_NULL_","_NULL_"
"Xanomeline High Dose","Y","INVESTIGATIONS","BLOOD CHOLESTEROL INCREASED","count","quantity",1,"_NULL_","_NULL_"
"Xanomeline High Dose","Y","INVESTIGATIONS","BLOOD GLUCOSE INCREASED","count","quantity",2,"_NULL_","_NULL_"
"Xanomeline High Dose","Y","INVESTIGATIONS","ELECTROCARDIOGRAM T WAVE INVERSION","count","quantity",1,"_NULL_","_NULL_"
"Xanomeline High Dose","Y","INVESTIGATIONS","WEIGHT DECREASED","count","quantity",2,"_NULL_","_NULL_"
"Xanomeline High Dose","Y","METABOLISM AND NUTRITION DISORDERS","DECREASED APPETITE","count","quantity",2,"_NULL_","_NULL_"
"Xanomeline High Dose","Y","METABOLISM AND NUTRITION DISORDERS","HYPERCHOLESTEROLAEMIA","count","quantity",1,"_NULL_","_NULL_"
"Xanomeline High Dose","Y","METABOLISM AND NUTRITION DISORDERS","INCREASED APPETITE","count","quantity",2,"_NULL_","_NULL_"
"Xanomeline High Dose","Y","MUSCULOSKELETAL AND CONNECTIVE TISSUE DISORDERS","ARTHRALGIA","count","quantity",1,"_NULL_","_NULL_"
"Xanomeline High Dose","Y","MUSCULOSKELETAL AND CONNECTIVE TISSUE DISORDERS","ARTHRITIS","count","quantity",1,"_NULL_","_NULL_"
"Xanomeline High Dose","Y","MUSCULOSKELETAL AND CONNECTIVE TISSUE DISORDERS","BACK PAIN","count","quantity",4,"_NULL_","_NULL_"
"Xanomeline High Dose","Y","MUSCULOSKELETAL AND CONNECTIVE TISSUE DISORDERS","FLANK PAIN","count","quantity",2,"_NULL_","_NULL_"
"Xanomeline High Dose","Y","MUSCULOSKELETAL AND CONNECTIVE TISSUE DISORDERS","MUSCLE SPASMS","count","quantity",2,"_NULL_","_NULL_"
"Xanomeline High Dose","Y","MUSCULOSKELETAL AND CONNECTIVE TISSUE DISORDERS","MYALGIA","count","quantity",1,"_NULL_","_NULL_"
"Xanomeline High Dose","Y","NEOPLASMS BENIGN, MALIGNANT AND UNSPECIFIED (INCL CYSTS AND POLYPS)","PROSTATE CANCER","count","quantity",1,"_NULL_","_NULL_"
"Xanomeline High Dose","Y","NERVOUS SYSTEM DISORDERS","AMNESIA","count","quantity",2,"_NULL_","_NULL_"
"Xanomeline High Dose","Y","NERVOUS SYSTEM DISORDERS","BURNING SENSATION","count","quantity",2,"_NULL_","_NULL_"
"Xanomeline High Dose","Y","NERVOUS SYSTEM DISORDERS","COGNITIVE DISORDER","count","quantity",1,"_NULL_","_NULL_"
"Xanomeline High Dose","Y","NERVOUS SYSTEM DISORDERS","DIZZINESS","count","quantity",18,"_NULL_","_NULL_"
"Xanomeline High Dose","Y","NERVOUS SYSTEM DISORDERS","HEADACHE","count","quantity",9,"_NULL_","_NULL_"
"Xanomeline High Dose","Y","NERVOUS SYSTEM DISORDERS","HYPERSOMNIA","count","quantity",1,"_NULL_","_NULL_"
"Xanomeline High Dose","Y","NERVOUS SYSTEM DISORDERS","LETHARGY","count","quantity",1,"_NULL_","_NULL_"
"Xanomeline High Dose","Y","NERVOUS SYSTEM DISORDERS","PARAESTHESIA","count","quantity",1,"_NULL_","_NULL_"
"Xanomeline High Dose","Y","NERVOUS SYSTEM DISORDERS","PAROSMIA","count","quantity",2,"_NULL_","_NULL_"
"Xanomeline High Dose","Y","NERVOUS SYSTEM DISORDERS","PARTIAL SEIZURES WITH SECONDARY GENERALISATION","count","quantity",1,"_NULL_","_NULL_"
"Xanomeline High Dose","Y","NERVOUS SYSTEM DISORDERS","SOMNOLENCE","count","quantity",1,"_NULL_","_NULL_"
"Xanomeline High Dose","Y","NERVOUS SYSTEM DISORDERS","SYNCOPE","count","quantity",4,"_NULL_","_NULL_"
"Xanomeline High Dose","Y","NERVOUS SYSTEM DISORDERS","SYNCOPE VASOVAGAL","count","quantity",1,"_NULL_","_NULL_"
"Xanomeline High Dose","Y","NERVOUS SYSTEM DISORDERS","TRANSIENT ISCHAEMIC ATTACK","count","quantity",1,"_NULL_","_NULL_"
"Xanomeline High Dose","Y","PSYCHIATRIC DISORDERS","AGITATION","count","quantity",1,"_NULL_","_NULL_"
"Xanomeline High Dose","Y","PSYCHIATRIC DISORDERS","CONFUSIONAL STATE","count","quantity",1,"_NULL_","_NULL_"
"Xanomeline High Dose","Y","PSYCHIATRIC DISORDERS","DELIRIUM","count","quantity",1,"_NULL_","_NULL_"
"Xanomeline High Dose","Y","PSYCHIATRIC DISORDERS","DELUSION","count","quantity",1,"_NULL_","_NULL_"
"Xanomeline High Dose","Y","PSYCHIATRIC DISORDERS","DEPRESSED MOOD","count","quantity",1,"_NULL_","_NULL_"
"Xanomeline High Dose","Y","PSYCHIATRIC DISORDERS","HALLUCINATION","count","quantity",1,"_NULL_","_NULL_"
"Xanomeline High Dose","Y","PSYCHIATRIC DISORDERS","HALLUCINATION, VISUAL","count","quantity",1,"_NULL_","_NULL_"
"Xanomeline High Dose","Y","PSYCHIATRIC DISORDERS","INSOMNIA","count","quantity",2,"_NULL_","_NULL_"
"Xanomeline High Dose","Y","PSYCHIATRIC DISORDERS","LIBIDO DECREASED","count","quantity",1,"_NULL_","_NULL_"
"Xanomeline High Dose","Y","PSYCHIATRIC DISORDERS","LISTLESS","count","quantity",1,"_NULL_","_NULL_"
"Xanomeline High Dose","Y","PSYCHIATRIC DISORDERS","NIGHTMARE","count","quantity",1,"_NULL_","_NULL_"
"Xanomeline High Dose","Y","RENAL AND URINARY DISORDERS","CALCULUS URETHRAL","count","quantity",1,"_NULL_","_NULL_"
"Xanomeline High Dose","Y","RENAL AND URINARY DISORDERS","MICTURITION URGENCY","count","quantity",2,"_NULL_","_NULL_"
"Xanomeline High Dose","Y","RENAL AND URINARY DISORDERS","NEPHROLITHIASIS","count","quantity",1,"_NULL_","_NULL_"
"Xanomeline High Dose","Y","REPRODUCTIVE SYSTEM AND BREAST DISORDERS","BENIGN PROSTATIC HYPERPLASIA","count","quantity",1,"_NULL_","_NULL_"
"Xanomeline High Dose","Y","RESPIRATORY, THORACIC AND MEDIASTINAL DISORDERS","ALLERGIC GRANULOMATOUS ANGIITIS","count","quantity",1,"_NULL_","_NULL_"
"Xanomeline High Dose","Y","RESPIRATORY, THORACIC AND MEDIASTINAL DISORDERS","COUGH","count","quantity",7,"_NULL_","_NULL_"
"Xanomeline High Dose","Y","RESPIRATORY, THORACIC AND MEDIASTINAL DISORDERS","DYSPNOEA","count","quantity",1,"_NULL_","_NULL_"
"Xanomeline High Dose","Y","RESPIRATORY, THORACIC AND MEDIASTINAL DISORDERS","EPISTAXIS","count","quantity",2,"_NULL_","_NULL_"
"Xanomeline High Dose","Y","RESPIRATORY, THORACIC AND MEDIASTINAL DISORDERS","NASAL CONGESTION","count","quantity",4,"_NULL_","_NULL_"
"Xanomeline High Dose","Y","RESPIRATORY, THORACIC AND MEDIASTINAL DISORDERS","PHARYNGEAL ERYTHEMA","count","quantity",2,"_NULL_","_NULL_"
"Xanomeline High Dose","Y","RESPIRATORY, THORACIC AND MEDIASTINAL DISORDERS","PHARYNGOLARYNGEAL PAIN","count","quantity",1,"_NULL_","_NULL_"
"Xanomeline High Dose","Y","RESPIRATORY, THORACIC AND MEDIASTINAL DISORDERS","PRODUCTIVE COUGH","count","quantity",1,"_NULL_","_NULL_"
"Xanomeline High Dose","Y","RESPIRATORY, THORACIC AND MEDIASTINAL DISORDERS","RESPIRATORY TRACT CONGESTION","count","quantity",1,"_NULL_","_NULL_"
"Xanomeline High Dose","Y","RESPIRATORY, THORACIC AND MEDIASTINAL DISORDERS","RHINORRHOEA","count","quantity",2,"_NULL_","_NULL_"
"Xanomeline High Dose","Y","SKIN AND SUBCUTANEOUS TISSUE DISORDERS","ACTINIC KERATOSIS","count","quantity",1,"_NULL_","_NULL_"
"Xanomeline High Dose","Y","SKIN AND SUBCUTANEOUS TISSUE DISORDERS","BLISTER","count","quantity",2,"_NULL_","_NULL_"
"Xanomeline High Dose","Y","SKIN AND SUBCUTANEOUS TISSUE DISORDERS","ERYTHEMA","count","quantity",22,"_NULL_","_NULL_"
"Xanomeline High Dose","Y","SKIN AND SUBCUTANEOUS TISSUE DISORDERS","HYPERHIDROSIS","count","quantity",10,"_NULL_","_NULL_"
"Xanomeline High Dose","Y","SKIN AND SUBCUTANEOUS TISSUE DISORDERS","PRURITUS","count","quantity",38,"_NULL_","_NULL_"
"Xanomeline High Dose","Y","SKIN AND SUBCUTANEOUS TISSUE DISORDERS","PRURITUS GENERALISED","count","quantity",1,"_NULL_","_NULL_"
"Xanomeline High Dose","Y","SKIN AND SUBCUTANEOUS TISSUE DISORDERS","RASH","count","quantity",18,"_NULL_","_NULL_"
"Xanomeline High Dose","Y","SKIN AND SUBCUTANEOUS TISSUE DISORDERS","RASH MACULO-PAPULAR","count","quantity",3,"_NULL_","_NULL_"
"Xanomeline High Dose","Y","SKIN AND SUBCUTANEOUS TISSUE DISORDERS","RASH PAPULAR","count","quantity",2,"_NULL_","_NULL_"
"Xanomeline High Dose","Y","SKIN AND SUBCUTANEOUS TISSUE DISORDERS","RASH PRURITIC","count","quantity",3,"_NULL_","_NULL_"
"Xanomeline High Dose","Y","SKIN AND SUBCUTANEOUS TISSUE DISORDERS","SKIN IRRITATION","count","quantity",8,"_NULL_","_NULL_"
"Xanomeline High Dose","Y","SKIN AND SUBCUTANEOUS TISSUE DISORDERS","SKIN ODOUR ABNORMAL","count","quantity",1,"_NULL_","_NULL_"
"Xanomeline High Dose","Y","SKIN AND SUBCUTANEOUS TISSUE DISORDERS","URTICARIA","count","quantity",2,"_NULL_","_NULL_"
"Xanomeline High Dose","Y","SOCIAL CIRCUMSTANCES","ALCOHOL USE","count","quantity",1,"_NULL_","_NULL_"
"Xanomeline High Dose","Y","SURGICAL AND MEDICAL PROCEDURES","ACROCHORDON EXCISION","count","quantity",1,"_NULL_","_NULL_"
"Xanomeline High Dose","Y","SURGICAL AND MEDICAL PROCEDURES","SKIN LESION EXCISION","count","quantity",1,"_NULL_","_NULL_"
"Xanomeline High Dose","Y","VASCULAR DISORDERS","HYPERTENSION","count","quantity",2,"_NULL_","_NULL_"
"Xanomeline High Dose","Y","VASCULAR DISORDERS","WOUND HAEMORRHAGE","count","quantity",1,"_NULL_","_NULL_"
"Xanomeline Low Dose","Y","CARDIAC DISORDERS","ATRIAL FIBRILLATION","count","quantity",1,"_NULL_","_NULL_"
"Xanomeline Low Dose","Y","CARDIAC DISORDERS","ATRIAL FLUTTER","count","quantity",1,"_NULL_","_NULL_"
"Xanomeline Low Dose","Y","CARDIAC DISORDERS","ATRIOVENTRICULAR BLOCK FIRST DEGREE","count","quantity",1,"_NULL_","_NULL_"
"Xanomeline Low Dose","Y","CARDIAC DISORDERS","BUNDLE BRANCH BLOCK RIGHT","count","quantity",1,"_NULL_","_NULL_"
"Xanomeline Low Dose","Y","CARDIAC DISORDERS","MYOCARDIAL INFARCTION","count","quantity",4,"_NULL_","_NULL_"
"Xanomeline Low Dose","Y","CARDIAC DISORDERS","PALPITATIONS","count","quantity",2,"_NULL_","_NULL_"
"Xanomeline Low Dose","Y","CARDIAC DISORDERS","SINUS BRADYCARDIA","count","quantity",10,"_NULL_","_NULL_"
"Xanomeline Low Dose","Y","CARDIAC DISORDERS","SUPRAVENTRICULAR EXTRASYSTOLES","count","quantity",2,"_NULL_","_NULL_"
"Xanomeline Low Dose","Y","CARDIAC DISORDERS","SUPRAVENTRICULAR TACHYCARDIA","count","quantity",2,"_NULL_","_NULL_"
"Xanomeline Low Dose","Y","CARDIAC DISORDERS","VENTRICULAR EXTRASYSTOLES","count","quantity",4,"_NULL_","_NULL_"
"Xanomeline Low Dose","Y","CARDIAC DISORDERS","WOLFF-PARKINSON-WHITE SYNDROME","count","quantity",2,"_NULL_","_NULL_"
"Xanomeline Low Dose","Y","CONGENITAL, FAMILIAL AND GENETIC DISORDERS","VENTRICULAR SEPTAL DEFECT","count","quantity",1,"_NULL_","_NULL_"
"Xanomeline Low Dose","Y","EAR AND LABYRINTH DISORDERS","CERUMEN IMPACTION","count","quantity",1,"_NULL_","_NULL_"
"Xanomeline Low Dose","Y","EAR AND LABYRINTH DISORDERS","TINNITUS","count","quantity",1,"_NULL_","_NULL_"
"Xanomeline Low Dose","Y","EAR AND LABYRINTH DISORDERS","VERTIGO","count","quantity",1,"_NULL_","_NULL_"
"Xanomeline Low Dose","Y","EYE DISORDERS","CONJUNCTIVAL HAEMORRHAGE","count","quantity",1,"_NULL_","_NULL_"
"Xanomeline Low Dose","Y","EYE DISORDERS","VISION BLURRED","count","quantity",1,"_NULL_","_NULL_"
"Xanomeline Low Dose","Y","GASTROINTESTINAL DISORDERS","ABDOMINAL PAIN","count","quantity",3,"_NULL_","_NULL_"
"Xanomeline Low Dose","Y","GASTROINTESTINAL DISORDERS","DIARRHOEA","count","quantity",7,"_NULL_","_NULL_"
"Xanomeline Low Dose","Y","GASTROINTESTINAL DISORDERS","DYSPEPSIA","count","quantity",2,"_NULL_","_NULL_"
"Xanomeline Low Dose","Y","GASTROINTESTINAL DISORDERS","DYSPHAGIA","count","quantity",1,"_NULL_","_NULL_"
"Xanomeline Low Dose","Y","GASTROINTESTINAL DISORDERS","NAUSEA","count","quantity",5,"_NULL_","_NULL_"
"Xanomeline Low Dose","Y","GASTROINTESTINAL DISORDERS","RECTAL HAEMORRHAGE","count","quantity",2,"_NULL_","_NULL_"
"Xanomeline Low Dose","Y","GASTROINTESTINAL DISORDERS","VOMITING","count","quantity",4,"_NULL_","_NULL_"
"Xanomeline Low Dose","Y","GENERAL DISORDERS AND ADMINISTRATION SITE CONDITIONS","APPLICATION SITE BLEEDING","count","quantity",1,"_NULL_","_NULL_"
"Xanomeline Low Dose","Y","GENERAL DISORDERS AND ADMINISTRATION SITE CONDITIONS","APPLICATION SITE DERMATITIS","count","quantity",15,"_NULL_","_NULL_"
"Xanomeline Low Dose","Y","GENERAL DISORDERS AND ADMINISTRATION SITE CONDITIONS","APPLICATION SITE DESQUAMATION","count","quantity",1,"_NULL_","_NULL_"
"Xanomeline Low Dose","Y","GENERAL DISORDERS AND ADMINISTRATION SITE CONDITIONS","APPLICATION SITE DISCOLOURATION","count","quantity",1,"_NULL_","_NULL_"
"Xanomeline Low Dose","Y","GENERAL DISORDERS AND ADMINISTRATION SITE CONDITIONS","APPLICATION SITE ERYTHEMA","count","quantity",20,"_NULL_","_NULL_"
"Xanomeline Low Dose","Y","GENERAL DISORDERS AND ADMINISTRATION SITE CONDITIONS","APPLICATION SITE IRRITATION","count","quantity",18,"_NULL_","_NULL_"
"Xanomeline Low Dose","Y","GENERAL DISORDERS AND ADMINISTRATION SITE CONDITIONS","APPLICATION SITE PRURITUS","count","quantity",33,"_NULL_","_NULL_"
"Xanomeline Low Dose","Y","GENERAL DISORDERS AND ADMINISTRATION SITE CONDITIONS","APPLICATION SITE SWELLING","count","quantity",1,"_NULL_","_NULL_"
"Xanomeline Low Dose","Y","GENERAL DISORDERS AND ADMINISTRATION SITE CONDITIONS","APPLICATION SITE URTICARIA","count","quantity",2,"_NULL_","_NULL_"
"Xanomeline Low Dose","Y","GENERAL DISORDERS AND ADMINISTRATION SITE CONDITIONS","APPLICATION SITE VESICLES","count","quantity",5,"_NULL_","_NULL_"
"Xanomeline Low Dose","Y","GENERAL DISORDERS AND ADMINISTRATION SITE CONDITIONS","APPLICATION SITE WARMTH","count","quantity",2,"_NULL_","_NULL_"
"Xanomeline Low Dose","Y","GENERAL DISORDERS AND ADMINISTRATION SITE CONDITIONS","CHILLS","count","quantity",2,"_NULL_","_NULL_"
"Xanomeline Low Dose","Y","GENERAL DISORDERS AND ADMINISTRATION SITE CONDITIONS","CYST","count","quantity",1,"_NULL_","_NULL_"
"Xanomeline Low Dose","Y","GENERAL DISORDERS AND ADMINISTRATION SITE CONDITIONS","FATIGUE","count","quantity",5,"_NULL_","_NULL_"
"Xanomeline Low Dose","Y","GENERAL DISORDERS AND ADMINISTRATION SITE CONDITIONS","INFLAMMATION","count","quantity",1,"_NULL_","_NULL_"
"Xanomeline Low Dose","Y","GENERAL DISORDERS AND ADMINISTRATION SITE CONDITIONS","MALAISE","count","quantity",2,"_NULL_","_NULL_"
"Xanomeline Low Dose","Y","GENERAL DISORDERS AND ADMINISTRATION SITE CONDITIONS","OEDEMA","count","quantity",2,"_NULL_","_NULL_"
"Xanomeline Low Dose","Y","GENERAL DISORDERS AND ADMINISTRATION SITE CONDITIONS","OEDEMA PERIPHERAL","count","quantity",1,"_NULL_","_NULL_"
"Xanomeline Low Dose","Y","GENERAL DISORDERS AND ADMINISTRATION SITE CONDITIONS","PAIN","count","quantity",2,"_NULL_","_NULL_"
"Xanomeline Low Dose","Y","GENERAL DISORDERS AND ADMINISTRATION SITE CONDITIONS","SECRETION DISCHARGE","count","quantity",2,"_NULL_","_NULL_"
"Xanomeline Low Dose","Y","GENERAL DISORDERS AND ADMINISTRATION SITE CONDITIONS","SUDDEN DEATH","count","quantity",1,"_NULL_","_NULL_"
"Xanomeline Low Dose","Y","GENERAL DISORDERS AND ADMINISTRATION SITE CONDITIONS","SWELLING","count","quantity",1,"_NULL_","_NULL_"
"Xanomeline Low Dose","Y","GENERAL DISORDERS AND ADMINISTRATION SITE CONDITIONS","ULCER","count","quantity",1,"_NULL_","_NULL_"
"Xanomeline Low Dose","Y","IMMUNE SYSTEM DISORDERS","HYPERSENSITIVITY","count","quantity",2,"_NULL_","_NULL_"
"Xanomeline Low Dose","Y","INFECTIONS AND INFESTATIONS","CELLULITIS","count","quantity",1,"_NULL_","_NULL_"
"Xanomeline Low Dose","Y","INFECTIONS AND INFESTATIONS","INFLUENZA","count","quantity",1,"_NULL_","_NULL_"
"Xanomeline Low Dose","Y","INFECTIONS AND INFESTATIONS","LOCALISED INFECTION","count","quantity",1,"_NULL_","_NULL_"
"Xanomeline Low Dose","Y","INFECTIONS AND INFESTATIONS","NASOPHARYNGITIS","count","quantity",9,"_NULL_","_NULL_"
"Xanomeline Low Dose","Y","INFECTIONS AND INFESTATIONS","ONYCHOMYCOSIS","count","quantity",1,"_NULL_","_NULL_"
"Xanomeline Low Dose","Y","INFECTIONS AND INFESTATIONS","PNEUMONIA","count","quantity",2,"_NULL_","_NULL_"
"Xanomeline Low Dose","Y","INFECTIONS AND INFESTATIONS","UPPER RESPIRATORY TRACT INFECTION","count","quantity",2,"_NULL_","_NULL_"
"Xanomeline Low Dose","Y","INFECTIONS AND INFESTATIONS","VIRAL INFECTION","count","quantity",1,"_NULL_","_NULL_"
"Xanomeline Low Dose","Y","INJURY, POISONING AND PROCEDURAL COMPLICATIONS","CONTUSION","count","quantity",3,"_NULL_","_NULL_"
"Xanomeline Low Dose","Y","INJURY, POISONING AND PROCEDURAL COMPLICATIONS","EXCORIATION","count","quantity",2,"_NULL_","_NULL_"
"Xanomeline Low Dose","Y","INJURY, POISONING AND PROCEDURAL COMPLICATIONS","FALL","count","quantity",2,"_NULL_","_NULL_"
"Xanomeline Low Dose","Y","INJURY, POISONING AND PROCEDURAL COMPLICATIONS","JOINT DISLOCATION","count","quantity",1,"_NULL_","_NULL_"
"Xanomeline Low Dose","Y","INJURY, POISONING AND PROCEDURAL COMPLICATIONS","SKIN LACERATION","count","quantity",2,"_NULL_","_NULL_"
"Xanomeline Low Dose","Y","INJURY, POISONING AND PROCEDURAL COMPLICATIONS","WOUND","count","quantity",2,"_NULL_","_NULL_"
"Xanomeline Low Dose","Y","INVESTIGATIONS","BLOOD GLUCOSE INCREASED","count","quantity",1,"_NULL_","_NULL_"
"Xanomeline Low Dose","Y","INVESTIGATIONS","BODY TEMPERATURE INCREASED","count","quantity",1,"_NULL_","_NULL_"
"Xanomeline Low Dose","Y","INVESTIGATIONS","ELECTROCARDIOGRAM ST SEGMENT DEPRESSION","count","quantity",2,"_NULL_","_NULL_"
"Xanomeline Low Dose","Y","INVESTIGATIONS","ELECTROCARDIOGRAM T WAVE AMPLITUDE DECREASED","count","quantity",1,"_NULL_","_NULL_"
"Xanomeline Low Dose","Y","INVESTIGATIONS","ELECTROCARDIOGRAM T WAVE INVERSION","count","quantity",1,"_NULL_","_NULL_"
"Xanomeline Low Dose","Y","INVESTIGATIONS","NASAL MUCOSA BIOPSY","count","quantity",1,"_NULL_","_NULL_"
"Xanomeline Low Dose","Y","INVESTIGATIONS","NEUTROPHIL COUNT INCREASED","count","quantity",2,"_NULL_","_NULL_"
"Xanomeline Low Dose","Y","INVESTIGATIONS","URINE ANALYSIS ABNORMAL","count","quantity",2,"_NULL_","_NULL_"
"Xanomeline Low Dose","Y","INVESTIGATIONS","WHITE BLOOD CELL COUNT INCREASED","count","quantity",2,"_NULL_","_NULL_"
"Xanomeline Low Dose","Y","METABOLISM AND NUTRITION DISORDERS","FOOD CRAVING","count","quantity",1,"_NULL_","_NULL_"
"Xanomeline Low Dose","Y","MUSCULOSKELETAL AND CONNECTIVE TISSUE DISORDERS","ARTHRALGIA","count","quantity",4,"_NULL_","_NULL_"
"Xanomeline Low Dose","Y","MUSCULOSKELETAL AND CONNECTIVE TISSUE DISORDERS","BACK PAIN","count","quantity",1,"_NULL_","_NULL_"
"Xanomeline Low Dose","Y","MUSCULOSKELETAL AND CONNECTIVE TISSUE DISORDERS","MUSCLE SPASMS","count","quantity",1,"_NULL_","_NULL_"
"Xanomeline Low Dose","Y","MUSCULOSKELETAL AND CONNECTIVE TISSUE DISORDERS","MUSCULAR WEAKNESS","count","quantity",2,"_NULL_","_NULL_"
"Xanomeline Low Dose","Y","MUSCULOSKELETAL AND CONNECTIVE TISSUE DISORDERS","SHOULDER PAIN","count","quantity",2,"_NULL_","_NULL_"
"Xanomeline Low Dose","Y","NEOPLASMS BENIGN, MALIGNANT AND UNSPECIFIED (INCL CYSTS AND POLYPS)","COLON CANCER","count","quantity",1,"_NULL_","_NULL_"
"Xanomeline Low Dose","Y","NEOPLASMS BENIGN, MALIGNANT AND UNSPECIFIED (INCL CYSTS AND POLYPS)","MALIGNANT FIBROUS HISTIOCYTOMA","count","quantity",2,"_NULL_","_NULL_"
"Xanomeline Low Dose","Y","NERVOUS SYSTEM DISORDERS","BALANCE DISORDER","count","quantity",3,"_NULL_","_NULL_"
"Xanomeline Low Dose","Y","NERVOUS SYSTEM DISORDERS","COMPLEX PARTIAL SEIZURES","count","quantity",1,"_NULL_","_NULL_"
"Xanomeline Low Dose","Y","NERVOUS SYSTEM DISORDERS","COORDINATION ABNORMAL","count","quantity",1,"_NULL_","_NULL_"
"Xanomeline Low Dose","Y","NERVOUS SYSTEM DISORDERS","DIZZINESS","count","quantity",13,"_NULL_","_NULL_"
"Xanomeline Low Dose","Y","NERVOUS SYSTEM DISORDERS","HEADACHE","count","quantity",4,"_NULL_","_NULL_"
"Xanomeline Low Dose","Y","NERVOUS SYSTEM DISORDERS","HEMIANOPIA HOMONYMOUS","count","quantity",1,"_NULL_","_NULL_"
"Xanomeline Low Dose","Y","NERVOUS SYSTEM DISORDERS","LETHARGY","count","quantity",1,"_NULL_","_NULL_"
"Xanomeline Low Dose","Y","NERVOUS SYSTEM DISORDERS","PARAESTHESIA ORAL","count","quantity",1,"_NULL_","_NULL_"
"Xanomeline Low Dose","Y","NERVOUS SYSTEM DISORDERS","SOMNOLENCE","count","quantity",5,"_NULL_","_NULL_"
"Xanomeline Low Dose","Y","NERVOUS SYSTEM DISORDERS","STUPOR","count","quantity",1,"_NULL_","_NULL_"
"Xanomeline Low Dose","Y","NERVOUS SYSTEM DISORDERS","SYNCOPE","count","quantity",6,"_NULL_","_NULL_"
"Xanomeline Low Dose","Y","NERVOUS SYSTEM DISORDERS","TRANSIENT ISCHAEMIC ATTACK","count","quantity",3,"_NULL_","_NULL_"
"Xanomeline Low Dose","Y","PSYCHIATRIC DISORDERS","AGITATION","count","quantity",2,"_NULL_","_NULL_"
"Xanomeline Low Dose","Y","PSYCHIATRIC DISORDERS","ANXIETY","count","quantity",4,"_NULL_","_NULL_"
"Xanomeline Low Dose","Y","PSYCHIATRIC DISORDERS","CONFUSIONAL STATE","count","quantity",3,"_NULL_","_NULL_"
"Xanomeline Low Dose","Y","PSYCHIATRIC DISORDERS","DEPRESSED MOOD","count","quantity",2,"_NULL_","_NULL_"
"Xanomeline Low Dose","Y","PSYCHIATRIC DISORDERS","IRRITABILITY","count","quantity",1,"_NULL_","_NULL_"
"Xanomeline Low Dose","Y","PSYCHIATRIC DISORDERS","RESTLESSNESS","count","quantity",2,"_NULL_","_NULL_"
"Xanomeline Low Dose","Y","RENAL AND URINARY DISORDERS","DYSURIA","count","quantity",1,"_NULL_","_NULL_"
"Xanomeline Low Dose","Y","RENAL AND URINARY DISORDERS","ENURESIS","count","quantity",1,"_NULL_","_NULL_"
"Xanomeline Low Dose","Y","RENAL AND URINARY DISORDERS","INCONTINENCE","count","quantity",1,"_NULL_","_NULL_"
"Xanomeline Low Dose","Y","RENAL AND URINARY DISORDERS","MICTURITION URGENCY","count","quantity",1,"_NULL_","_NULL_"
"Xanomeline Low Dose","Y","RESPIRATORY, THORACIC AND MEDIASTINAL DISORDERS","COUGH","count","quantity",9,"_NULL_","_NULL_"
"Xanomeline Low Dose","Y","RESPIRATORY, THORACIC AND MEDIASTINAL DISORDERS","DYSPHONIA","count","quantity",1,"_NULL_","_NULL_"
"Xanomeline Low Dose","Y","RESPIRATORY, THORACIC AND MEDIASTINAL DISORDERS","DYSPNOEA","count","quantity",1,"_NULL_","_NULL_"
"Xanomeline Low Dose","Y","RESPIRATORY, THORACIC AND MEDIASTINAL DISORDERS","EPISTAXIS","count","quantity",1,"_NULL_","_NULL_"
"Xanomeline Low Dose","Y","RESPIRATORY, THORACIC AND MEDIASTINAL DISORDERS","NASAL CONGESTION","count","quantity",1,"_NULL_","_NULL_"
"Xanomeline Low Dose","Y","RESPIRATORY, THORACIC AND MEDIASTINAL DISORDERS","PHARYNGOLARYNGEAL PAIN","count","quantity",1,"_NULL_","_NULL_"
"Xanomeline Low Dose","Y","RESPIRATORY, THORACIC AND MEDIASTINAL DISORDERS","RHINORRHOEA","count","quantity",2,"_NULL_","_NULL_"
"Xanomeline Low Dose","Y","SKIN AND SUBCUTANEOUS TISSUE DISORDERS","BLISTER","count","quantity",8,"_NULL_","_NULL_"
"Xanomeline Low Dose","Y","SKIN AND SUBCUTANEOUS TISSUE DISORDERS","DERMATITIS CONTACT","count","quantity",2,"_NULL_","_NULL_"
"Xanomeline Low Dose","Y","SKIN AND SUBCUTANEOUS TISSUE DISORDERS","ERYTHEMA","count","quantity",24,"_NULL_","_NULL_"
"Xanomeline Low Dose","Y","SKIN AND SUBCUTANEOUS TISSUE DISORDERS","HYPERHIDROSIS","count","quantity",5,"_NULL_","_NULL_"
"Xanomeline Low Dose","Y","SKIN AND SUBCUTANEOUS TISSUE DISORDERS","PRURITUS","count","quantity",35,"_NULL_","_NULL_"
"Xanomeline Low Dose","Y","SKIN AND SUBCUTANEOUS TISSUE DISORDERS","PRURITUS GENERALISED","count","quantity",4,"_NULL_","_NULL_"
"Xanomeline Low Dose","Y","SKIN AND SUBCUTANEOUS TISSUE DISORDERS","RASH","count","quantity",18,"_NULL_","_NULL_"
"Xanomeline Low Dose","Y","SKIN AND SUBCUTANEOUS TISSUE DISORDERS","RASH ERYTHEMATOUS","count","quantity",2,"_NULL_","_NULL_"
"Xanomeline Low Dose","Y","SKIN AND SUBCUTANEOUS TISSUE DISORDERS","RASH PRURITIC","count","quantity",2,"_NULL_","_NULL_"
"Xanomeline Low Dose","Y","SKIN AND SUBCUTANEOUS TISSUE DISORDERS","SKIN EXFOLIATION","count","quantity",2,"_NULL_","_NULL_"
"Xanomeline Low Dose","Y","SKIN AND SUBCUTANEOUS TISSUE DISORDERS","SKIN IRRITATION","count","quantity",13,"_NULL_","_NULL_"
"Xanomeline Low Dose","Y","SKIN AND SUBCUTANEOUS TISSUE DISORDERS","URTICARIA","count","quantity",3,"_NULL_","_NULL_"
"Xanomeline Low Dose","Y","SURGICAL AND MEDICAL PROCEDURES","CATARACT OPERATION","count","quantity",1,"_NULL_","_NULL_"
"Xanomeline Low Dose","Y","VASCULAR DISORDERS","HOT FLUSH","count","quantity",1,"_NULL_","_NULL_"
"Xanomeline Low Dose","Y","VASCULAR DISORDERS","HYPERTENSION","count","quantity",1,"_NULL_","_NULL_"
"Xanomeline Low Dose","Y","VASCULAR DISORDERS","HYPOTENSION","count","quantity",1,"_NULL_","_NULL_"
"Placebo","Y","CARDIAC DISORDERS","ATRIAL FIBRILLATION","countdistinct","USUBJID",1,"_NULL_","_NULL_"
"Placebo","Y","CARDIAC DISORDERS","ATRIAL HYPERTROPHY","countdistinct","USUBJID",1,"_NULL_","_NULL_"
"Placebo","Y","CARDIAC DISORDERS","ATRIOVENTRICULAR BLOCK FIRST DEGREE","countdistinct","USUBJID",1,"_NULL_","_NULL_"
"Placebo","Y","CARDIAC DISORDERS","ATRIOVENTRICULAR BLOCK SECOND DEGREE","countdistinct","USUBJID",2,"_NULL_","_NULL_"
"Placebo","Y","CARDIAC DISORDERS","BRADYCARDIA","countdistinct","USUBJID",1,"_NULL_","_NULL_"
"Placebo","Y","CARDIAC DISORDERS","BUNDLE BRANCH BLOCK LEFT","countdistinct","USUBJID",1,"_NULL_","_NULL_"
"Placebo","Y","CARDIAC DISORDERS","BUNDLE BRANCH BLOCK RIGHT","countdistinct","USUBJID",1,"_NULL_","_NULL_"
"Placebo","Y","CARDIAC DISORDERS","CARDIAC FAILURE CONGESTIVE","countdistinct","USUBJID",1,"_NULL_","_NULL_"
"Placebo","Y","CARDIAC DISORDERS","MYOCARDIAL INFARCTION","countdistinct","USUBJID",4,"_NULL_","_NULL_"
"Placebo","Y","CARDIAC DISORDERS","SINUS ARRHYTHMIA","countdistinct","USUBJID",1,"_NULL_","_NULL_"
"Placebo","Y","CARDIAC DISORDERS","SINUS BRADYCARDIA","countdistinct","USUBJID",2,"_NULL_","_NULL_"
"Placebo","Y","CARDIAC DISORDERS","SUPRAVENTRICULAR EXTRASYSTOLES","countdistinct","USUBJID",1,"_NULL_","_NULL_"
"Placebo","Y","CARDIAC DISORDERS","TACHYCARDIA","countdistinct","USUBJID",1,"_NULL_","_NULL_"
"Placebo","Y","CARDIAC DISORDERS","VENTRICULAR HYPERTROPHY","countdistinct","USUBJID",1,"_NULL_","_NULL_"
"Placebo","Y","EAR AND LABYRINTH DISORDERS","EAR PAIN","countdistinct","USUBJID",1,"_NULL_","_NULL_"
"Placebo","Y","EYE DISORDERS","CONJUNCTIVITIS","countdistinct","USUBJID",2,"_NULL_","_NULL_"
"Placebo","Y","EYE DISORDERS","EYE ALLERGY","countdistinct","USUBJID",1,"_NULL_","_NULL_"
"Placebo","Y","EYE DISORDERS","EYE PRURITUS","countdistinct","USUBJID",1,"_NULL_","_NULL_"
"Placebo","Y","EYE DISORDERS","EYE SWELLING","countdistinct","USUBJID",1,"_NULL_","_NULL_"
"Placebo","Y","EYE DISORDERS","GLAUCOMA","countdistinct","USUBJID",1,"_NULL_","_NULL_"
"Placebo","Y","GASTROINTESTINAL DISORDERS","ABDOMINAL PAIN","countdistinct","USUBJID",1,"_NULL_","_NULL_"
"Placebo","Y","GASTROINTESTINAL DISORDERS","CONSTIPATION","countdistinct","USUBJID",1,"_NULL_","_NULL_"
"Placebo","Y","GASTROINTESTINAL DISORDERS","DIARRHOEA","countdistinct","USUBJID",9,"_NULL_","_NULL_"
"Placebo","Y","GASTROINTESTINAL DISORDERS","DYSPEPSIA","countdistinct","USUBJID",1,"_NULL_","_NULL_"
"Placebo","Y","GASTROINTESTINAL DISORDERS","FLATULENCE","countdistinct","USUBJID",1,"_NULL_","_NULL_"
"Placebo","Y","GASTROINTESTINAL DISORDERS","GASTROOESOPHAGEAL REFLUX DISEASE","countdistinct","USUBJID",1,"_NULL_","_NULL_"
"Placebo","Y","GASTROINTESTINAL DISORDERS","GLOSSITIS","countdistinct","USUBJID",1,"_NULL_","_NULL_"
"Placebo","Y","GASTROINTESTINAL DISORDERS","HIATUS HERNIA","countdistinct","USUBJID",1,"_NULL_","_NULL_"
"Placebo","Y","GASTROINTESTINAL DISORDERS","NAUSEA","countdistinct","USUBJID",3,"_NULL_","_NULL_"
"Placebo","Y","GASTROINTESTINAL DISORDERS","VOMITING","countdistinct","USUBJID",3,"_NULL_","_NULL_"
"Placebo","Y","GENERAL DISORDERS AND ADMINISTRATION SITE CONDITIONS","APPLICATION SITE DERMATITIS","countdistinct","USUBJID",5,"_NULL_","_NULL_"
"Placebo","Y","GENERAL DISORDERS AND ADMINISTRATION SITE CONDITIONS","APPLICATION SITE ERYTHEMA","countdistinct","USUBJID",3,"_NULL_","_NULL_"
"Placebo","Y","GENERAL DISORDERS AND ADMINISTRATION SITE CONDITIONS","APPLICATION SITE INDURATION","countdistinct","USUBJID",1,"_NULL_","_NULL_"
"Placebo","Y","GENERAL DISORDERS AND ADMINISTRATION SITE CONDITIONS","APPLICATION SITE IRRITATION","countdistinct","USUBJID",3,"_NULL_","_NULL_"
"Placebo","Y","GENERAL DISORDERS AND ADMINISTRATION SITE CONDITIONS","APPLICATION SITE PRURITUS","countdistinct","USUBJID",6,"_NULL_","_NULL_"
"Placebo","Y","GENERAL DISORDERS AND ADMINISTRATION SITE CONDITIONS","APPLICATION SITE REACTION","countdistinct","USUBJID",1,"_NULL_","_NULL_"
"Placebo","Y","GENERAL DISORDERS AND ADMINISTRATION SITE CONDITIONS","APPLICATION SITE VESICLES","countdistinct","USUBJID",1,"_NULL_","_NULL_"
"Placebo","Y","GENERAL DISORDERS AND ADMINISTRATION SITE CONDITIONS","ASTHENIA","countdistinct","USUBJID",1,"_NULL_","_NULL_"
"Placebo","Y","GENERAL DISORDERS AND ADMINISTRATION SITE CONDITIONS","CHILLS","countdistinct","USUBJID",1,"_NULL_","_NULL_"
"Placebo","Y","GENERAL DISORDERS AND ADMINISTRATION SITE CONDITIONS","FATIGUE","countdistinct","USUBJID",1,"_NULL_","_NULL_"
"Placebo","Y","GENERAL DISORDERS AND ADMINISTRATION SITE CONDITIONS","OEDEMA PERIPHERAL","countdistinct","USUBJID",2,"_NULL_","_NULL_"
"Placebo","Y","GENERAL DISORDERS AND ADMINISTRATION SITE CONDITIONS","PYREXIA","countdistinct","USUBJID",2,"_NULL_","_NULL_"
"Placebo","Y","HEPATOBILIARY DISORDERS","HYPERBILIRUBINAEMIA","countdistinct","USUBJID",1,"_NULL_","_NULL_"
"Placebo","Y","INFECTIONS AND INFESTATIONS","BRONCHITIS","countdistinct","USUBJID",1,"_NULL_","_NULL_"
"Placebo","Y","INFECTIONS AND INFESTATIONS","CERVICITIS","countdistinct","USUBJID",1,"_NULL_","_NULL_"
"Placebo","Y","INFECTIONS AND INFESTATIONS","CYSTITIS","countdistinct","USUBJID",1,"_NULL_","_NULL_"
"Placebo","Y","INFECTIONS AND INFESTATIONS","EAR INFECTION","countdistinct","USUBJID",2,"_NULL_","_NULL_"
"Placebo","Y","INFECTIONS AND INFESTATIONS","GASTROENTERITIS VIRAL","countdistinct","USUBJID",1,"_NULL_","_NULL_"
"Placebo","Y","INFECTIONS AND INFESTATIONS","INFLUENZA","countdistinct","USUBJID",1,"_NULL_","_NULL_"
"Placebo","Y","INFECTIONS AND INFESTATIONS","LOCALISED INFECTION","countdistinct","USUBJID",1,"_NULL_","_NULL_"
"Placebo","Y","INFECTIONS AND INFESTATIONS","NASOPHARYNGITIS","countdistinct","USUBJID",2,"_NULL_","_NULL_"
"Placebo","Y","INFECTIONS AND INFESTATIONS","UPPER RESPIRATORY TRACT INFECTION","countdistinct","USUBJID",6,"_NULL_","_NULL_"
"Placebo","Y","INFECTIONS AND INFESTATIONS","URINARY TRACT INFECTION","countdistinct","USUBJID",2,"_NULL_","_NULL_"
"Placebo","Y","INFECTIONS AND INFESTATIONS","VAGINAL MYCOSIS","countdistinct","USUBJID",1,"_NULL_","_NULL_"
"Placebo","Y","INJURY, POISONING AND PROCEDURAL COMPLICATIONS","CONTUSION","countdistinct","USUBJID",1,"_NULL_","_NULL_"
"Placebo","Y","INJURY, POISONING AND PROCEDURAL COMPLICATIONS","EXCORIATION","countdistinct","USUBJID",2,"_NULL_","_NULL_"
"Placebo","Y","INJURY, POISONING AND PROCEDURAL COMPLICATIONS","FALL","countdistinct","USUBJID",1,"_NULL_","_NULL_"
"Placebo","Y","INJURY, POISONING AND PROCEDURAL COMPLICATIONS","HIP FRACTURE","countdistinct","USUBJID",1,"_NULL_","_NULL_"
"Placebo","Y","INJURY, POISONING AND PROCEDURAL COMPLICATIONS","SKIN LACERATION","countdistinct","USUBJID",1,"_NULL_","_NULL_"
"Placebo","Y","INVESTIGATIONS","BLOOD ALKALINE PHOSPHATASE INCREASED","countdistinct","USUBJID",1,"_NULL_","_NULL_"
"Placebo","Y","INVESTIGATIONS","BLOOD CREATINE PHOSPHOKINASE INCREASED","countdistinct","USUBJID",1,"_NULL_","_NULL_"
"Placebo","Y","INVESTIGATIONS","BLOOD URINE PRESENT","countdistinct","USUBJID",1,"_NULL_","_NULL_"
"Placebo","Y","INVESTIGATIONS","CYSTOSCOPY","countdistinct","USUBJID",1,"_NULL_","_NULL_"
"Placebo","Y","INVESTIGATIONS","ELECTROCARDIOGRAM ST SEGMENT DEPRESSION","countdistinct","USUBJID",4,"_NULL_","_NULL_"
"Placebo","Y","INVESTIGATIONS","ELECTROCARDIOGRAM T WAVE AMPLITUDE DECREASED","countdistinct","USUBJID",1,"_NULL_","_NULL_"
"Placebo","Y","INVESTIGATIONS","ELECTROCARDIOGRAM T WAVE INVERSION","countdistinct","USUBJID",2,"_NULL_","_NULL_"
"Placebo","Y","INVESTIGATIONS","HEART RATE INCREASED","countdistinct","USUBJID",1,"_NULL_","_NULL_"
"Placebo","Y","INVESTIGATIONS","HEART RATE IRREGULAR","countdistinct","USUBJID",1,"_NULL_","_NULL_"
"Placebo","Y","METABOLISM AND NUTRITION DISORDERS","DECREASED APPETITE","countdistinct","USUBJID",1,"_NULL_","_NULL_"
"Placebo","Y","METABOLISM AND NUTRITION DISORDERS","DEHYDRATION","countdistinct","USUBJID",1,"_NULL_","_NULL_"
"Placebo","Y","METABOLISM AND NUTRITION DISORDERS","DIABETES MELLITUS","countdistinct","USUBJID",1,"_NULL_","_NULL_"
"Placebo","Y","METABOLISM AND NUTRITION DISORDERS","FOOD CRAVING","countdistinct","USUBJID",1,"_NULL_","_NULL_"
"Placebo","Y","METABOLISM AND NUTRITION DISORDERS","HYPONATRAEMIA","countdistinct","USUBJID",1,"_NULL_","_NULL_"
"Placebo","Y","METABOLISM AND NUTRITION DISORDERS","INCREASED APPETITE","countdistinct","USUBJID",1,"_NULL_","_NULL_"
"Placebo","Y","MUSCULOSKELETAL AND CONNECTIVE TISSUE DISORDERS","ARTHRALGIA","countdistinct","USUBJID",1,"_NULL_","_NULL_"
"Placebo","Y","MUSCULOSKELETAL AND CONNECTIVE TISSUE DISORDERS","ARTHRITIS","countdistinct","USUBJID",1,"_NULL_","_NULL_"
"Placebo","Y","MUSCULOSKELETAL AND CONNECTIVE TISSUE DISORDERS","BACK PAIN","countdistinct","USUBJID",1,"_NULL_","_NULL_"
"Placebo","Y","MUSCULOSKELETAL AND CONNECTIVE TISSUE DISORDERS","PAIN IN EXTREMITY","countdistinct","USUBJID",1,"_NULL_","_NULL_"
"Placebo","Y","MUSCULOSKELETAL AND CONNECTIVE TISSUE DISORDERS","SHOULDER PAIN","countdistinct","USUBJID",1,"_NULL_","_NULL_"
"Placebo","Y","NERVOUS SYSTEM DISORDERS","DIZZINESS","countdistinct","USUBJID",2,"_NULL_","_NULL_"
"Placebo","Y","NERVOUS SYSTEM DISORDERS","HEADACHE","countdistinct","USUBJID",7,"_NULL_","_NULL_"
"Placebo","Y","NERVOUS SYSTEM DISORDERS","PARKINSON'S DISEASE","countdistinct","USUBJID",1,"_NULL_","_NULL_"
"Placebo","Y","NERVOUS SYSTEM DISORDERS","PSYCHOMOTOR HYPERACTIVITY","countdistinct","USUBJID",1,"_NULL_","_NULL_"
"Placebo","Y","NERVOUS SYSTEM DISORDERS","SOMNOLENCE","countdistinct","USUBJID",2,"_NULL_","_NULL_"
"Placebo","Y","PSYCHIATRIC DISORDERS","AGITATION","countdistinct","USUBJID",2,"_NULL_","_NULL_"
"Placebo","Y","PSYCHIATRIC DISORDERS","ANXIETY","countdistinct","USUBJID",1,"_NULL_","_NULL_"
"Placebo","Y","PSYCHIATRIC DISORDERS","COMPLETED SUICIDE","countdistinct","USUBJID",1,"_NULL_","_NULL_"
"Placebo","Y","PSYCHIATRIC DISORDERS","CONFUSIONAL STATE","countdistinct","USUBJID",2,"_NULL_","_NULL_"
"Placebo","Y","PSYCHIATRIC DISORDERS","DELUSION","countdistinct","USUBJID",1,"_NULL_","_NULL_"
"Placebo","Y","PSYCHIATRIC DISORDERS","DISORIENTATION","countdistinct","USUBJID",1,"_NULL_","_NULL_"
"Placebo","Y","PSYCHIATRIC DISORDERS","INSOMNIA","countdistinct","USUBJID",2,"_NULL_","_NULL_"
"Placebo","Y","PSYCHIATRIC DISORDERS","IRRITABILITY","countdistinct","USUBJID",1,"_NULL_","_NULL_"
"Placebo","Y","RENAL AND URINARY DISORDERS","DYSURIA","countdistinct","USUBJID",1,"_NULL_","_NULL_"
"Placebo","Y","RENAL AND URINARY DISORDERS","MICTURITION URGENCY","countdistinct","USUBJID",1,"_NULL_","_NULL_"
"Placebo","Y","RENAL AND URINARY DISORDERS","NEPHROLITHIASIS","countdistinct","USUBJID",1,"_NULL_","_NULL_"
"Placebo","Y","RENAL AND URINARY DISORDERS","POLLAKIURIA","countdistinct","USUBJID",1,"_NULL_","_NULL_"
"Placebo","Y","REPRODUCTIVE SYSTEM AND BREAST DISORDERS","BENIGN PROSTATIC HYPERPLASIA","countdistinct","USUBJID",1,"_NULL_","_NULL_"
"Placebo","Y","REPRODUCTIVE SYSTEM AND BREAST DISORDERS","PELVIC PAIN","countdistinct","USUBJID",1,"_NULL_","_NULL_"
"Placebo","Y","RESPIRATORY, THORACIC AND MEDIASTINAL DISORDERS","COUGH","countdistinct","USUBJID",3,"_NULL_","_NULL_"
"Placebo","Y","RESPIRATORY, THORACIC AND MEDIASTINAL DISORDERS","DYSPNOEA","countdistinct","USUBJID",1,"_NULL_","_NULL_"
"Placebo","Y","RESPIRATORY, THORACIC AND MEDIASTINAL DISORDERS","EMPHYSEMA","countdistinct","USUBJID",1,"_NULL_","_NULL_"
"Placebo","Y","RESPIRATORY, THORACIC AND MEDIASTINAL DISORDERS","HAEMOPTYSIS","countdistinct","USUBJID",1,"_NULL_","_NULL_"
"Placebo","Y","RESPIRATORY, THORACIC AND MEDIASTINAL DISORDERS","NASAL CONGESTION","countdistinct","USUBJID",3,"_NULL_","_NULL_"
"Placebo","Y","RESPIRATORY, THORACIC AND MEDIASTINAL DISORDERS","POSTNASAL DRIP","countdistinct","USUBJID",1,"_NULL_","_NULL_"
"Placebo","Y","RESPIRATORY, THORACIC AND MEDIASTINAL DISORDERS","RALES","countdistinct","USUBJID",1,"_NULL_","_NULL_"
"Placebo","Y","SKIN AND SUBCUTANEOUS TISSUE DISORDERS","ALOPECIA","countdistinct","USUBJID",1,"_NULL_","_NULL_"
"Placebo","Y","SKIN AND SUBCUTANEOUS TISSUE DISORDERS","COLD SWEAT","countdistinct","USUBJID",1,"_NULL_","_NULL_"
"Placebo","Y","SKIN AND SUBCUTANEOUS TISSUE DISORDERS","DERMATITIS ATOPIC","countdistinct","USUBJID",1,"_NULL_","_NULL_"
"Placebo","Y","SKIN AND SUBCUTANEOUS TISSUE DISORDERS","DRUG ERUPTION","countdistinct","USUBJID",1,"_NULL_","_NULL_"
"Placebo","Y","SKIN AND SUBCUTANEOUS TISSUE DISORDERS","ERYTHEMA","countdistinct","USUBJID",9,"_NULL_","_NULL_"
"Placebo","Y","SKIN AND SUBCUTANEOUS TISSUE DISORDERS","HYPERHIDROSIS","countdistinct","USUBJID",2,"_NULL_","_NULL_"
"Placebo","Y","SKIN AND SUBCUTANEOUS TISSUE DISORDERS","PRURITUS","countdistinct","USUBJID",8,"_NULL_","_NULL_"
"Placebo","Y","SKIN AND SUBCUTANEOUS TISSUE DISORDERS","RASH","countdistinct","USUBJID",5,"_NULL_","_NULL_"
"Placebo","Y","SKIN AND SUBCUTANEOUS TISSUE DISORDERS","SKIN IRRITATION","countdistinct","USUBJID",3,"_NULL_","_NULL_"
"Placebo","Y","SKIN AND SUBCUTANEOUS TISSUE DISORDERS","SKIN ULCER","countdistinct","USUBJID",1,"_NULL_","_NULL_"
"Placebo","Y","SURGICAL AND MEDICAL PROCEDURES","CATARACT OPERATION","countdistinct","USUBJID",1,"_NULL_","_NULL_"
"Placebo","Y","SURGICAL AND MEDICAL PROCEDURES","EYE LASER SURGERY","countdistinct","USUBJID",1,"_NULL_","_NULL_"
"Placebo","Y","VASCULAR DISORDERS","HYPERTENSION","countdistinct","USUBJID",1,"_NULL_","_NULL_"
"Placebo","Y","VASCULAR DISORDERS","HYPOTENSION","countdistinct","USUBJID",2,"_NULL_","_NULL_"
"Placebo","Y","VASCULAR DISORDERS","ORTHOSTATIC HYPOTENSION","countdistinct","USUBJID",1,"_NULL_","_NULL_"
"Xanomeline High Dose","Y","CARDIAC DISORDERS","ATRIAL FIBRILLATION","countdistinct","USUBJID",3,"_NULL_","_NULL_"
"Xanomeline High Dose","Y","CARDIAC DISORDERS","ATRIAL FLUTTER","countdistinct","USUBJID",1,"_NULL_","_NULL_"
"Xanomeline High Dose","Y","CARDIAC DISORDERS","ATRIOVENTRICULAR BLOCK SECOND DEGREE","countdistinct","USUBJID",3,"_NULL_","_NULL_"
"Xanomeline High Dose","Y","CARDIAC DISORDERS","CARDIAC DISORDER","countdistinct","USUBJID",1,"_NULL_","_NULL_"
"Xanomeline High Dose","Y","CARDIAC DISORDERS","MYOCARDIAL INFARCTION","countdistinct","USUBJID",4,"_NULL_","_NULL_"
"Xanomeline High Dose","Y","CARDIAC DISORDERS","SINUS BRADYCARDIA","countdistinct","USUBJID",8,"_NULL_","_NULL_"
"Xanomeline High Dose","Y","CARDIAC DISORDERS","SUPRAVENTRICULAR EXTRASYSTOLES","countdistinct","USUBJID",1,"_NULL_","_NULL_"
"Xanomeline High Dose","Y","CARDIAC DISORDERS","VENTRICULAR EXTRASYSTOLES","countdistinct","USUBJID",1,"_NULL_","_NULL_"
"Xanomeline High Dose","Y","CONGENITAL, FAMILIAL AND GENETIC DISORDERS","VENTRICULAR SEPTAL DEFECT","countdistinct","USUBJID",2,"_NULL_","_NULL_"
"Xanomeline High Dose","Y","EAR AND LABYRINTH DISORDERS","VERTIGO","countdistinct","USUBJID",1,"_NULL_","_NULL_"
"Xanomeline High Dose","Y","EYE DISORDERS","VISION BLURRED","countdistinct","USUBJID",1,"_NULL_","_NULL_"
"Xanomeline High Dose","Y","GASTROINTESTINAL DISORDERS","ABDOMINAL DISCOMFORT","countdistinct","USUBJID",1,"_NULL_","_NULL_"
"Xanomeline High Dose","Y","GASTROINTESTINAL DISORDERS","ABDOMINAL PAIN","countdistinct","USUBJID",1,"_NULL_","_NULL_"
"Xanomeline High Dose","Y","GASTROINTESTINAL DISORDERS","DIARRHOEA","countdistinct","USUBJID",4,"_NULL_","_NULL_"
"Xanomeline High Dose","Y","GASTROINTESTINAL DISORDERS","DYSPEPSIA","countdistinct","USUBJID",1,"_NULL_","_NULL_"
"Xanomeline High Dose","Y","GASTROINTESTINAL DISORDERS","GASTROINTESTINAL HAEMORRHAGE","countdistinct","USUBJID",1,"_NULL_","_NULL_"
"Xanomeline High Dose","Y","GASTROINTESTINAL DISORDERS","NAUSEA","countdistinct","USUBJID",6,"_NULL_","_NULL_"
"Xanomeline High Dose","Y","GASTROINTESTINAL DISORDERS","SALIVARY HYPERSECRETION","countdistinct","USUBJID",4,"_NULL_","_NULL_"
"Xanomeline High Dose","Y","GASTROINTESTINAL DISORDERS","STOMACH DISCOMFORT","countdistinct","USUBJID",1,"_NULL_","_NULL_"
"Xanomeline High Dose","Y","GASTROINTESTINAL DISORDERS","VOMITING","countdistinct","USUBJID",7,"_NULL_","_NULL_"
"Xanomeline High Dose","Y","GENERAL DISORDERS AND ADMINISTRATION SITE CONDITIONS","APPLICATION SITE DERMATITIS","countdistinct","USUBJID",7,"_NULL_","_NULL_"
"Xanomeline High Dose","Y","GENERAL DISORDERS AND ADMINISTRATION SITE CONDITIONS","APPLICATION SITE DISCHARGE","countdistinct","USUBJID",1,"_NULL_","_NULL_"
"Xanomeline High Dose","Y","GENERAL DISORDERS AND ADMINISTRATION SITE CONDITIONS","APPLICATION SITE ERYTHEMA","countdistinct","USUBJID",15,"_NULL_","_NULL_"
"Xanomeline High Dose","Y","GENERAL DISORDERS AND ADMINISTRATION SITE CONDITIONS","APPLICATION SITE IRRITATION","countdistinct","USUBJID",9,"_NULL_","_NULL_"
"Xanomeline High Dose","Y","GENERAL DISORDERS AND ADMINISTRATION SITE CONDITIONS","APPLICATION SITE PAIN","countdistinct","USUBJID",2,"_NULL_","_NULL_"
"Xanomeline High Dose","Y","GENERAL DISORDERS AND ADMINISTRATION SITE CONDITIONS","APPLICATION SITE PERSPIRATION","countdistinct","USUBJID",2,"_NULL_","_NULL_"
"Xanomeline High Dose","Y","GENERAL DISORDERS AND ADMINISTRATION SITE CONDITIONS","APPLICATION SITE PRURITUS","countdistinct","USUBJID",22,"_NULL_","_NULL_"
"Xanomeline High Dose","Y","GENERAL DISORDERS AND ADMINISTRATION SITE CONDITIONS","APPLICATION SITE REACTION","countdistinct","USUBJID",1,"_NULL_","_NULL_"
"Xanomeline High Dose","Y","GENERAL DISORDERS AND ADMINISTRATION SITE CONDITIONS","APPLICATION SITE SWELLING","countdistinct","USUBJID",2,"_NULL_","_NULL_"
"Xanomeline High Dose","Y","GENERAL DISORDERS AND ADMINISTRATION SITE CONDITIONS","APPLICATION SITE URTICARIA","countdistinct","USUBJID",1,"_NULL_","_NULL_"
"Xanomeline High Dose","Y","GENERAL DISORDERS AND ADMINISTRATION SITE CONDITIONS","APPLICATION SITE VESICLES","countdistinct","USUBJID",6,"_NULL_","_NULL_"
"Xanomeline High Dose","Y","GENERAL DISORDERS AND ADMINISTRATION SITE CONDITIONS","ASTHENIA","countdistinct","USUBJID",1,"_NULL_","_NULL_"
"Xanomeline High Dose","Y","GENERAL DISORDERS AND ADMINISTRATION SITE CONDITIONS","CHEST DISCOMFORT","countdistinct","USUBJID",2,"_NULL_","_NULL_"
"Xanomeline High Dose","Y","GENERAL DISORDERS AND ADMINISTRATION SITE CONDITIONS","CHEST PAIN","countdistinct","USUBJID",2,"_NULL_","_NULL_"
"Xanomeline High Dose","Y","GENERAL DISORDERS AND ADMINISTRATION SITE CONDITIONS","CHILLS","countdistinct","USUBJID",1,"_NULL_","_NULL_"
"Xanomeline High Dose","Y","GENERAL DISORDERS AND ADMINISTRATION SITE CONDITIONS","FATIGUE","countdistinct","USUBJID",5,"_NULL_","_NULL_"
"Xanomeline High Dose","Y","GENERAL DISORDERS AND ADMINISTRATION SITE CONDITIONS","FEELING ABNORMAL","countdistinct","USUBJID",1,"_NULL_","_NULL_"
"Xanomeline High Dose","Y","GENERAL DISORDERS AND ADMINISTRATION SITE CONDITIONS","FEELING COLD","countdistinct","USUBJID",1,"_NULL_","_NULL_"
"Xanomeline High Dose","Y","GENERAL DISORDERS AND ADMINISTRATION SITE CONDITIONS","MALAISE","countdistinct","USUBJID",2,"_NULL_","_NULL_"
"Xanomeline High Dose","Y","GENERAL DISORDERS AND ADMINISTRATION SITE CONDITIONS","OEDEMA PERIPHERAL","countdistinct","USUBJID",2,"_NULL_","_NULL_"
"Xanomeline High Dose","Y","GENERAL DISORDERS AND ADMINISTRATION SITE CONDITIONS","PAIN","countdistinct","USUBJID",1,"_NULL_","_NULL_"
"Xanomeline High Dose","Y","GENERAL DISORDERS AND ADMINISTRATION SITE CONDITIONS","PYREXIA","countdistinct","USUBJID",1,"_NULL_","_NULL_"
"Xanomeline High Dose","Y","IMMUNE SYSTEM DISORDERS","SEASONAL ALLERGY","countdistinct","USUBJID",1,"_NULL_","_NULL_"
"Xanomeline High Dose","Y","INFECTIONS AND INFESTATIONS","CYSTITIS","countdistinct","USUBJID",1,"_NULL_","_NULL_"
"Xanomeline High Dose","Y","INFECTIONS AND INFESTATIONS","HORDEOLUM","countdistinct","USUBJID",1,"_NULL_","_NULL_"
"Xanomeline High Dose","Y","INFECTIONS AND INFESTATIONS","INFLUENZA","countdistinct","USUBJID",1,"_NULL_","_NULL_"
"Xanomeline High Dose","Y","INFECTIONS AND INFESTATIONS","LOWER RESPIRATORY TRACT INFECTION","countdistinct","USUBJID",1,"_NULL_","_NULL_"
"Xanomeline High Dose","Y","INFECTIONS AND INFESTATIONS","NASOPHARYNGITIS","countdistinct","USUBJID",6,"_NULL_","_NULL_"
"Xanomeline High Dose","Y","INFECTIONS AND INFESTATIONS","RHINITIS","countdistinct","USUBJID",1,"_NULL_","_NULL_"
"Xanomeline High Dose","Y","INFECTIONS AND INFESTATIONS","UPPER RESPIRATORY TRACT INFECTION","countdistinct","USUBJID",3,"_NULL_","_NULL_"
"Xanomeline High Dose","Y","INFECTIONS AND INFESTATIONS","URINARY TRACT INFECTION","countdistinct","USUBJID",1,"_NULL_","_NULL_"
"Xanomeline High Dose","Y","INJURY, POISONING AND PROCEDURAL COMPLICATIONS","CONTUSION","countdistinct","USUBJID",2,"_NULL_","_NULL_"
"Xanomeline High Dose","Y","INJURY, POISONING AND PROCEDURAL COMPLICATIONS","EXCORIATION","countdistinct","USUBJID",1,"_NULL_","_NULL_"
"Xanomeline High Dose","Y","INJURY, POISONING AND PROCEDURAL COMPLICATIONS","FACIAL BONES FRACTURE","countdistinct","USUBJID",1,"_NULL_","_NULL_"
"Xanomeline High Dose","Y","INJURY, POISONING AND PROCEDURAL COMPLICATIONS","FALL","countdistinct","USUBJID",1,"_NULL_","_NULL_"
"Xanomeline High Dose","Y","INJURY, POISONING AND PROCEDURAL COMPLICATIONS","HIP FRACTURE","countdistinct","USUBJID",2,"_NULL_","_NULL_"
"Xanomeline High Dose","Y","INVESTIGATIONS","BIOPSY","countdistinct","USUBJID",1,"_NULL_","_NULL_"
"Xanomeline High Dose","Y","INVESTIGATIONS","BIOPSY PROSTATE","countdistinct","USUBJID",1,"_NULL_","_NULL_"
"Xanomeline High Dose","Y","INVESTIGATIONS","BLOOD CHOLESTEROL INCREASED","countdistinct","USUBJID",1,"_NULL_","_NULL_"
"Xanomeline High Dose","Y","INVESTIGATIONS","BLOOD GLUCOSE INCREASED","countdistinct","USUBJID",1,"_NULL_","_NULL_"
"Xanomeline High Dose","Y","INVESTIGATIONS","ELECTROCARDIOGRAM T WAVE INVERSION","countdistinct","USUBJID",1,"_NULL_","_NULL_"
"Xanomeline High Dose","Y","INVESTIGATIONS","WEIGHT DECREASED","countdistinct","USUBJID",1,"_NULL_","_NULL_"
"Xanomeline High Dose","Y","METABOLISM AND NUTRITION DISORDERS","DECREASED APPETITE","countdistinct","USUBJID",1,"_NULL_","_NULL_"
"Xanomeline High Dose","Y","METABOLISM AND NUTRITION DISORDERS","HYPERCHOLESTEROLAEMIA","countdistinct","USUBJID",1,"_NULL_","_NULL_"
"Xanomeline High Dose","Y","METABOLISM AND NUTRITION DISORDERS","INCREASED APPETITE","countdistinct","USUBJID",1,"_NULL_","_NULL_"
"Xanomeline High Dose","Y","MUSCULOSKELETAL AND CONNECTIVE TISSUE DISORDERS","ARTHRALGIA","countdistinct","USUBJID",1,"_NULL_","_NULL_"
"Xanomeline High Dose","Y","MUSCULOSKELETAL AND CONNECTIVE TISSUE DISORDERS","ARTHRITIS","countdistinct","USUBJID",1,"_NULL_","_NULL_"
"Xanomeline High Dose","Y","MUSCULOSKELETAL AND CONNECTIVE TISSUE DISORDERS","BACK PAIN","countdistinct","USUBJID",3,"_NULL_","_NULL_"
"Xanomeline High Dose","Y","MUSCULOSKELETAL AND CONNECTIVE TISSUE DISORDERS","FLANK PAIN","countdistinct","USUBJID",2,"_NULL_","_NULL_"
"Xanomeline High Dose","Y","MUSCULOSKELETAL AND CONNECTIVE TISSUE DISORDERS","MUSCLE SPASMS","countdistinct","USUBJID",1,"_NULL_","_NULL_"
"Xanomeline High Dose","Y","MUSCULOSKELETAL AND CONNECTIVE TISSUE DISORDERS","MYALGIA","countdistinct","USUBJID",1,"_NULL_","_NULL_"
"Xanomeline High Dose","Y","NEOPLASMS BENIGN, MALIGNANT AND UNSPECIFIED (INCL CYSTS AND POLYPS)","PROSTATE CANCER","countdistinct","USUBJID",1,"_NULL_","_NULL_"
"Xanomeline High Dose","Y","NERVOUS SYSTEM DISORDERS","AMNESIA","countdistinct","USUBJID",1,"_NULL_","_NULL_"
"Xanomeline High Dose","Y","NERVOUS SYSTEM DISORDERS","BURNING SENSATION","countdistinct","USUBJID",2,"_NULL_","_NULL_"
"Xanomeline High Dose","Y","NERVOUS SYSTEM DISORDERS","COGNITIVE DISORDER","countdistinct","USUBJID",1,"_NULL_","_NULL_"
"Xanomeline High Dose","Y","NERVOUS SYSTEM DISORDERS","DIZZINESS","countdistinct","USUBJID",12,"_NULL_","_NULL_"
"Xanomeline High Dose","Y","NERVOUS SYSTEM DISORDERS","HEADACHE","countdistinct","USUBJID",6,"_NULL_","_NULL_"
"Xanomeline High Dose","Y","NERVOUS SYSTEM DISORDERS","HYPERSOMNIA","countdistinct","USUBJID",1,"_NULL_","_NULL_"
"Xanomeline High Dose","Y","NERVOUS SYSTEM DISORDERS","LETHARGY","countdistinct","USUBJID",1,"_NULL_","_NULL_"
"Xanomeline High Dose","Y","NERVOUS SYSTEM DISORDERS","PARAESTHESIA","countdistinct","USUBJID",1,"_NULL_","_NULL_"
"Xanomeline High Dose","Y","NERVOUS SYSTEM DISORDERS","PAROSMIA","countdistinct","USUBJID",1,"_NULL_","_NULL_"
"Xanomeline High Dose","Y","NERVOUS SYSTEM DISORDERS","PARTIAL SEIZURES WITH SECONDARY GENERALISATION","countdistinct","USUBJID",1,"_NULL_","_NULL_"
"Xanomeline High Dose","Y","NERVOUS SYSTEM DISORDERS","SOMNOLENCE","countdistinct","USUBJID",1,"_NULL_","_NULL_"
"Xanomeline High Dose","Y","NERVOUS SYSTEM DISORDERS","SYNCOPE","countdistinct","USUBJID",3,"_NULL_","_NULL_"
"Xanomeline High Dose","Y","NERVOUS SYSTEM DISORDERS","SYNCOPE VASOVAGAL","countdistinct","USUBJID",1,"_NULL_","_NULL_"
"Xanomeline High Dose","Y","NERVOUS SYSTEM DISORDERS","TRANSIENT ISCHAEMIC ATTACK","countdistinct","USUBJID",1,"_NULL_","_NULL_"
"Xanomeline High Dose","Y","PSYCHIATRIC DISORDERS","AGITATION","countdistinct","USUBJID",1,"_NULL_","_NULL_"
"Xanomeline High Dose","Y","PSYCHIATRIC DISORDERS","CONFUSIONAL STATE","countdistinct","USUBJID",1,"_NULL_","_NULL_"
"Xanomeline High Dose","Y","PSYCHIATRIC DISORDERS","DELIRIUM","countdistinct","USUBJID",1,"_NULL_","_NULL_"
"Xanomeline High Dose","Y","PSYCHIATRIC DISORDERS","DELUSION","countdistinct","USUBJID",1,"_NULL_","_NULL_"
"Xanomeline High Dose","Y","PSYCHIATRIC DISORDERS","DEPRESSED MOOD","countdistinct","USUBJID",1,"_NULL_","_NULL_"
"Xanomeline High Dose","Y","PSYCHIATRIC DISORDERS","HALLUCINATION","countdistinct","USUBJID",1,"_NULL_","_NULL_"
"Xanomeline High Dose","Y","PSYCHIATRIC DISORDERS","HALLUCINATION, VISUAL","countdistinct","USUBJID",1,"_NULL_","_NULL_"
"Xanomeline High Dose","Y","PSYCHIATRIC DISORDERS","INSOMNIA","countdistinct","USUBJID",2,"_NULL_","_NULL_"
"Xanomeline High Dose","Y","PSYCHIATRIC DISORDERS","LIBIDO DECREASED","countdistinct","USUBJID",1,"_NULL_","_NULL_"
"Xanomeline High Dose","Y","PSYCHIATRIC DISORDERS","LISTLESS","countdistinct","USUBJID",1,"_NULL_","_NULL_"
"Xanomeline High Dose","Y","PSYCHIATRIC DISORDERS","NIGHTMARE","countdistinct","USUBJID",1,"_NULL_","_NULL_"
"Xanomeline High Dose","Y","RENAL AND URINARY DISORDERS","CALCULUS URETHRAL","countdistinct","USUBJID",1,"_NULL_","_NULL_"
"Xanomeline High Dose","Y","RENAL AND URINARY DISORDERS","MICTURITION URGENCY","countdistinct","USUBJID",1,"_NULL_","_NULL_"
"Xanomeline High Dose","Y","RENAL AND URINARY DISORDERS","NEPHROLITHIASIS","countdistinct","USUBJID",1,"_NULL_","_NULL_"
"Xanomeline High Dose","Y","REPRODUCTIVE SYSTEM AND BREAST DISORDERS","BENIGN PROSTATIC HYPERPLASIA","countdistinct","USUBJID",1,"_NULL_","_NULL_"
"Xanomeline High Dose","Y","RESPIRATORY, THORACIC AND MEDIASTINAL DISORDERS","ALLERGIC GRANULOMATOUS ANGIITIS","countdistinct","USUBJID",1,"_NULL_","_NULL_"
"Xanomeline High Dose","Y","RESPIRATORY, THORACIC AND MEDIASTINAL DISORDERS","COUGH","countdistinct","USUBJID",5,"_NULL_","_NULL_"
"Xanomeline High Dose","Y","RESPIRATORY, THORACIC AND MEDIASTINAL DISORDERS","DYSPNOEA","countdistinct","USUBJID",1,"_NULL_","_NULL_"
"Xanomeline High Dose","Y","RESPIRATORY, THORACIC AND MEDIASTINAL DISORDERS","EPISTAXIS","countdistinct","USUBJID",2,"_NULL_","_NULL_"
"Xanomeline High Dose","Y","RESPIRATORY, THORACIC AND MEDIASTINAL DISORDERS","NASAL CONGESTION","countdistinct","USUBJID",3,"_NULL_","_NULL_"
"Xanomeline High Dose","Y","RESPIRATORY, THORACIC AND MEDIASTINAL DISORDERS","PHARYNGEAL ERYTHEMA","countdistinct","USUBJID",1,"_NULL_","_NULL_"
"Xanomeline High Dose","Y","RESPIRATORY, THORACIC AND MEDIASTINAL DISORDERS","PHARYNGOLARYNGEAL PAIN","countdistinct","USUBJID",1,"_NULL_","_NULL_"
"Xanomeline High Dose","Y","RESPIRATORY, THORACIC AND MEDIASTINAL DISORDERS","PRODUCTIVE COUGH","countdistinct","USUBJID",1,"_NULL_","_NULL_"
"Xanomeline High Dose","Y","RESPIRATORY, THORACIC AND MEDIASTINAL DISORDERS","RESPIRATORY TRACT CONGESTION","countdistinct","USUBJID",1,"_NULL_","_NULL_"
"Xanomeline High Dose","Y","RESPIRATORY, THORACIC AND MEDIASTINAL DISORDERS","RHINORRHOEA","countdistinct","USUBJID",1,"_NULL_","_NULL_"
"Xanomeline High Dose","Y","SKIN AND SUBCUTANEOUS TISSUE DISORDERS","ACTINIC KERATOSIS","countdistinct","USUBJID",1,"_NULL_","_NULL_"
"Xanomeline High Dose","Y","SKIN AND SUBCUTANEOUS TISSUE DISORDERS","BLISTER","countdistinct","USUBJID",1,"_NULL_","_NULL_"
"Xanomeline High Dose","Y","SKIN AND SUBCUTANEOUS TISSUE DISORDERS","ERYTHEMA","countdistinct","USUBJID",14,"_NULL_","_NULL_"
"Xanomeline High Dose","Y","SKIN AND SUBCUTANEOUS TISSUE DISORDERS","HYPERHIDROSIS","countdistinct","USUBJID",8,"_NULL_","_NULL_"
"Xanomeline High Dose","Y","SKIN AND SUBCUTANEOUS TISSUE DISORDERS","PRURITUS","countdistinct","USUBJID",26,"_NULL_","_NULL_"
"Xanomeline High Dose","Y","SKIN AND SUBCUTANEOUS TISSUE DISORDERS","PRURITUS GENERALISED","countdistinct","USUBJID",1,"_NULL_","_NULL_"
"Xanomeline High Dose","Y","SKIN AND SUBCUTANEOUS TISSUE DISORDERS","RASH","countdistinct","USUBJID",11,"_NULL_","_NULL_"
"Xanomeline High Dose","Y","SKIN AND SUBCUTANEOUS TISSUE DISORDERS","RASH MACULO-PAPULAR","countdistinct","USUBJID",1,"_NULL_","_NULL_"
"Xanomeline High Dose","Y","SKIN AND SUBCUTANEOUS TISSUE DISORDERS","RASH PAPULAR","countdistinct","USUBJID",1,"_NULL_","_NULL_"
"Xanomeline High Dose","Y","SKIN AND SUBCUTANEOUS TISSUE DISORDERS","RASH PRURITIC","countdistinct","USUBJID",2,"_NULL_","_NULL_"
"Xanomeline High Dose","Y","SKIN AND SUBCUTANEOUS TISSUE DISORDERS","SKIN IRRITATION","countdistinct","USUBJID",5,"_NULL_","_NULL_"
"Xanomeline High Dose","Y","SKIN AND SUBCUTANEOUS TISSUE DISORDERS","SKIN ODOUR ABNORMAL","countdistinct","USUBJID",1,"_NULL_","_NULL_"
"Xanomeline High Dose","Y","SKIN AND SUBCUTANEOUS TISSUE DISORDERS","URTICARIA","countdistinct","USUBJID",1,"_NULL_","_NULL_"
"Xanomeline High Dose","Y","SOCIAL CIRCUMSTANCES","ALCOHOL USE","countdistinct","USUBJID",1,"_NULL_","_NULL_"
"Xanomeline High Dose","Y","SURGICAL AND MEDICAL PROCEDURES","ACROCHORDON EXCISION","countdistinct","USUBJID",1,"_NULL_","_NULL_"
"Xanomeline High Dose","Y","SURGICAL AND MEDICAL PROCEDURES","SKIN LESION EXCISION","countdistinct","USUBJID",1,"_NULL_","_NULL_"
"Xanomeline High Dose","Y","VASCULAR DISORDERS","HYPERTENSION","countdistinct","USUBJID",1,"_NULL_","_NULL_"
"Xanomeline High Dose","Y","VASCULAR DISORDERS","WOUND HAEMORRHAGE","countdistinct","USUBJID",1,"_NULL_","_NULL_"
"Xanomeline Low Dose","Y","CARDIAC DISORDERS","ATRIAL FIBRILLATION","countdistinct","USUBJID",1,"_NULL_","_NULL_"
"Xanomeline Low Dose","Y","CARDIAC DISORDERS","ATRIAL FLUTTER","countdistinct","USUBJID",1,"_NULL_","_NULL_"
"Xanomeline Low Dose","Y","CARDIAC DISORDERS","ATRIOVENTRICULAR BLOCK FIRST DEGREE","countdistinct","USUBJID",1,"_NULL_","_NULL_"
"Xanomeline Low Dose","Y","CARDIAC DISORDERS","BUNDLE BRANCH BLOCK RIGHT","countdistinct","USUBJID",1,"_NULL_","_NULL_"
"Xanomeline Low Dose","Y","CARDIAC DISORDERS","MYOCARDIAL INFARCTION","countdistinct","USUBJID",2,"_NULL_","_NULL_"
"Xanomeline Low Dose","Y","CARDIAC DISORDERS","PALPITATIONS","countdistinct","USUBJID",2,"_NULL_","_NULL_"
"Xanomeline Low Dose","Y","CARDIAC DISORDERS","SINUS BRADYCARDIA","countdistinct","USUBJID",7,"_NULL_","_NULL_"
"Xanomeline Low Dose","Y","CARDIAC DISORDERS","SUPRAVENTRICULAR EXTRASYSTOLES","countdistinct","USUBJID",1,"_NULL_","_NULL_"
"Xanomeline Low Dose","Y","CARDIAC DISORDERS","SUPRAVENTRICULAR TACHYCARDIA","countdistinct","USUBJID",1,"_NULL_","_NULL_"
"Xanomeline Low Dose","Y","CARDIAC DISORDERS","VENTRICULAR EXTRASYSTOLES","countdistinct","USUBJID",2,"_NULL_","_NULL_"
"Xanomeline Low Dose","Y","CARDIAC DISORDERS","WOLFF-PARKINSON-WHITE SYNDROME","countdistinct","USUBJID",1,"_NULL_","_NULL_"
"Xanomeline Low Dose","Y","CONGENITAL, FAMILIAL AND GENETIC DISORDERS","VENTRICULAR SEPTAL DEFECT","countdistinct","USUBJID",1,"_NULL_","_NULL_"
"Xanomeline Low Dose","Y","EAR AND LABYRINTH DISORDERS","CERUMEN IMPACTION","countdistinct","USUBJID",1,"_NULL_","_NULL_"
"Xanomeline Low Dose","Y","EAR AND LABYRINTH DISORDERS","TINNITUS","countdistinct","USUBJID",1,"_NULL_","_NULL_"
"Xanomeline Low Dose","Y","EAR AND LABYRINTH DISORDERS","VERTIGO","countdistinct","USUBJID",1,"_NULL_","_NULL_"
"Xanomeline Low Dose","Y","EYE DISORDERS","CONJUNCTIVAL HAEMORRHAGE","countdistinct","USUBJID",1,"_NULL_","_NULL_"
"Xanomeline Low Dose","Y","EYE DISORDERS","VISION BLURRED","countdistinct","USUBJID",1,"_NULL_","_NULL_"
"Xanomeline Low Dose","Y","GASTROINTESTINAL DISORDERS","ABDOMINAL PAIN","countdistinct","USUBJID",3,"_NULL_","_NULL_"
"Xanomeline Low Dose","Y","GASTROINTESTINAL DISORDERS","DIARRHOEA","countdistinct","USUBJID",5,"_NULL_","_NULL_"
"Xanomeline Low Dose","Y","GASTROINTESTINAL DISORDERS","DYSPEPSIA","countdistinct","USUBJID",1,"_NULL_","_NULL_"
"Xanomeline Low Dose","Y","GASTROINTESTINAL DISORDERS","DYSPHAGIA","countdistinct","USUBJID",1,"_NULL_","_NULL_"
"Xanomeline Low Dose","Y","GASTROINTESTINAL DISORDERS","NAUSEA","countdistinct","USUBJID",3,"_NULL_","_NULL_"
"Xanomeline Low Dose","Y","GASTROINTESTINAL DISORDERS","RECTAL HAEMORRHAGE","countdistinct","USUBJID",1,"_NULL_","_NULL_"
"Xanomeline Low Dose","Y","GASTROINTESTINAL DISORDERS","VOMITING","countdistinct","USUBJID",3,"_NULL_","_NULL_"
"Xanomeline Low Dose","Y","GENERAL DISORDERS AND ADMINISTRATION SITE CONDITIONS","APPLICATION SITE BLEEDING","countdistinct","USUBJID",1,"_NULL_","_NULL_"
"Xanomeline Low Dose","Y","GENERAL DISORDERS AND ADMINISTRATION SITE CONDITIONS","APPLICATION SITE DERMATITIS","countdistinct","USUBJID",9,"_NULL_","_NULL_"
"Xanomeline Low Dose","Y","GENERAL DISORDERS AND ADMINISTRATION SITE CONDITIONS","APPLICATION SITE DESQUAMATION","countdistinct","USUBJID",1,"_NULL_","_NULL_"
"Xanomeline Low Dose","Y","GENERAL DISORDERS AND ADMINISTRATION SITE CONDITIONS","APPLICATION SITE DISCOLOURATION","countdistinct","USUBJID",1,"_NULL_","_NULL_"
"Xanomeline Low Dose","Y","GENERAL DISORDERS AND ADMINISTRATION SITE CONDITIONS","APPLICATION SITE ERYTHEMA","countdistinct","USUBJID",12,"_NULL_","_NULL_"
"Xanomeline Low Dose","Y","GENERAL DISORDERS AND ADMINISTRATION SITE CONDITIONS","APPLICATION SITE IRRITATION","countdistinct","USUBJID",9,"_NULL_","_NULL_"
"Xanomeline Low Dose","Y","GENERAL DISORDERS AND ADMINISTRATION SITE CONDITIONS","APPLICATION SITE PRURITUS","countdistinct","USUBJID",22,"_NULL_","_NULL_"
"Xanomeline Low Dose","Y","GENERAL DISORDERS AND ADMINISTRATION SITE CONDITIONS","APPLICATION SITE SWELLING","countdistinct","USUBJID",1,"_NULL_","_NULL_"
"Xanomeline Low Dose","Y","GENERAL DISORDERS AND ADMINISTRATION SITE CONDITIONS","APPLICATION SITE URTICARIA","countdistinct","USUBJID",2,"_NULL_","_NULL_"
"Xanomeline Low Dose","Y","GENERAL DISORDERS AND ADMINISTRATION SITE CONDITIONS","APPLICATION SITE VESICLES","countdistinct","USUBJID",4,"_NULL_","_NULL_"
"Xanomeline Low Dose","Y","GENERAL DISORDERS AND ADMINISTRATION SITE CONDITIONS","APPLICATION SITE WARMTH","countdistinct","USUBJID",1,"_NULL_","_NULL_"
"Xanomeline Low Dose","Y","GENERAL DISORDERS AND ADMINISTRATION SITE CONDITIONS","CHILLS","countdistinct","USUBJID",1,"_NULL_","_NULL_"
"Xanomeline Low Dose","Y","GENERAL DISORDERS AND ADMINISTRATION SITE CONDITIONS","CYST","countdistinct","USUBJID",1,"_NULL_","_NULL_"
"Xanomeline Low Dose","Y","GENERAL DISORDERS AND ADMINISTRATION SITE CONDITIONS","FATIGUE","countdistinct","USUBJID",5,"_NULL_","_NULL_"
"Xanomeline Low Dose","Y","GENERAL DISORDERS AND ADMINISTRATION SITE CONDITIONS","INFLAMMATION","countdistinct","USUBJID",1,"_NULL_","_NULL_"
"Xanomeline Low Dose","Y","GENERAL DISORDERS AND ADMINISTRATION SITE CONDITIONS","MALAISE","countdistinct","USUBJID",1,"_NULL_","_NULL_"
"Xanomeline Low Dose","Y","GENERAL DISORDERS AND ADMINISTRATION SITE CONDITIONS","OEDEMA","countdistinct","USUBJID",2,"_NULL_","_NULL_"
"Xanomeline Low Dose","Y","GENERAL DISORDERS AND ADMINISTRATION SITE CONDITIONS","OEDEMA PERIPHERAL","countdistinct","USUBJID",1,"_NULL_","_NULL_"
"Xanomeline Low Dose","Y","GENERAL DISORDERS AND ADMINISTRATION SITE CONDITIONS","PAIN","countdistinct","USUBJID",1,"_NULL_","_NULL_"
"Xanomeline Low Dose","Y","GENERAL DISORDERS AND ADMINISTRATION SITE CONDITIONS","SECRETION DISCHARGE","countdistinct","USUBJID",1,"_NULL_","_NULL_"
"Xanomeline Low Dose","Y","GENERAL DISORDERS AND ADMINISTRATION SITE CONDITIONS","SUDDEN DEATH","countdistinct","USUBJID",1,"_NULL_","_NULL_"
"Xanomeline Low Dose","Y","GENERAL DISORDERS AND ADMINISTRATION SITE CONDITIONS","SWELLING","countdistinct","USUBJID",1,"_NULL_","_NULL_"
"Xanomeline Low Dose","Y","GENERAL DISORDERS AND ADMINISTRATION SITE CONDITIONS","ULCER","countdistinct","USUBJID",1,"_NULL_","_NULL_"
"Xanomeline Low Dose","Y","IMMUNE SYSTEM DISORDERS","HYPERSENSITIVITY","countdistinct","USUBJID",1,"_NULL_","_NULL_"
"Xanomeline Low Dose","Y","INFECTIONS AND INFESTATIONS","CELLULITIS","countdistinct","USUBJID",1,"_NULL_","_NULL_"
"Xanomeline Low Dose","Y","INFECTIONS AND INFESTATIONS","INFLUENZA","countdistinct","USUBJID",1,"_NULL_","_NULL_"
"Xanomeline Low Dose","Y","INFECTIONS AND INFESTATIONS","LOCALISED INFECTION","countdistinct","USUBJID",1,"_NULL_","_NULL_"
"Xanomeline Low Dose","Y","INFECTIONS AND INFESTATIONS","NASOPHARYNGITIS","countdistinct","USUBJID",4,"_NULL_","_NULL_"
"Xanomeline Low Dose","Y","INFECTIONS AND INFESTATIONS","ONYCHOMYCOSIS","countdistinct","USUBJID",1,"_NULL_","_NULL_"
"Xanomeline Low Dose","Y","INFECTIONS AND INFESTATIONS","PNEUMONIA","countdistinct","USUBJID",1,"_NULL_","_NULL_"
"Xanomeline Low Dose","Y","INFECTIONS AND INFESTATIONS","UPPER RESPIRATORY TRACT INFECTION","countdistinct","USUBJID",1,"_NULL_","_NULL_"
"Xanomeline Low Dose","Y","INFECTIONS AND INFESTATIONS","VIRAL INFECTION","countdistinct","USUBJID",1,"_NULL_","_NULL_"
"Xanomeline Low Dose","Y","INJURY, POISONING AND PROCEDURAL COMPLICATIONS","CONTUSION","countdistinct","USUBJID",1,"_NULL_","_NULL_"
"Xanomeline Low Dose","Y","INJURY, POISONING AND PROCEDURAL COMPLICATIONS","EXCORIATION","countdistinct","USUBJID",1,"_NULL_","_NULL_"
"Xanomeline Low Dose","Y","INJURY, POISONING AND PROCEDURAL COMPLICATIONS","FALL","countdistinct","USUBJID",2,"_NULL_","_NULL_"
"Xanomeline Low Dose","Y","INJURY, POISONING AND PROCEDURAL COMPLICATIONS","JOINT DISLOCATION","countdistinct","USUBJID",1,"_NULL_","_NULL_"
"Xanomeline Low Dose","Y","INJURY, POISONING AND PROCEDURAL COMPLICATIONS","SKIN LACERATION","countdistinct","USUBJID",2,"_NULL_","_NULL_"
"Xanomeline Low Dose","Y","INJURY, POISONING AND PROCEDURAL COMPLICATIONS","WOUND","countdistinct","USUBJID",1,"_NULL_","_NULL_"
"Xanomeline Low Dose","Y","INVESTIGATIONS","BLOOD GLUCOSE INCREASED","countdistinct","USUBJID",1,"_NULL_","_NULL_"
"Xanomeline Low Dose","Y","INVESTIGATIONS","BODY TEMPERATURE INCREASED","countdistinct","USUBJID",1,"_NULL_","_NULL_"
"Xanomeline Low Dose","Y","INVESTIGATIONS","ELECTROCARDIOGRAM ST SEGMENT DEPRESSION","countdistinct","USUBJID",1,"_NULL_","_NULL_"
"Xanomeline Low Dose","Y","INVESTIGATIONS","ELECTROCARDIOGRAM T WAVE AMPLITUDE DECREASED","countdistinct","USUBJID",1,"_NULL_","_NULL_"
"Xanomeline Low Dose","Y","INVESTIGATIONS","ELECTROCARDIOGRAM T WAVE INVERSION","countdistinct","USUBJID",1,"_NULL_","_NULL_"
"Xanomeline Low Dose","Y","INVESTIGATIONS","NASAL MUCOSA BIOPSY","countdistinct","USUBJID",1,"_NULL_","_NULL_"
"Xanomeline Low Dose","Y","INVESTIGATIONS","NEUTROPHIL COUNT INCREASED","countdistinct","USUBJID",1,"_NULL_","_NULL_"
"Xanomeline Low Dose","Y","INVESTIGATIONS","URINE ANALYSIS ABNORMAL","countdistinct","USUBJID",1,"_NULL_","_NULL_"
"Xanomeline Low Dose","Y","INVESTIGATIONS","WHITE BLOOD CELL COUNT INCREASED","countdistinct","USUBJID",1,"_NULL_","_NULL_"
"Xanomeline Low Dose","Y","METABOLISM AND NUTRITION DISORDERS","FOOD CRAVING","countdistinct","USUBJID",1,"_NULL_","_NULL_"
"Xanomeline Low Dose","Y","MUSCULOSKELETAL AND CONNECTIVE TISSUE DISORDERS","ARTHRALGIA","countdistinct","USUBJID",2,"_NULL_","_NULL_"
"Xanomeline Low Dose","Y","MUSCULOSKELETAL AND CONNECTIVE TISSUE DISORDERS","BACK PAIN","countdistinct","USUBJID",1,"_NULL_","_NULL_"
"Xanomeline Low Dose","Y","MUSCULOSKELETAL AND CONNECTIVE TISSUE DISORDERS","MUSCLE SPASMS","countdistinct","USUBJID",1,"_NULL_","_NULL_"
"Xanomeline Low Dose","Y","MUSCULOSKELETAL AND CONNECTIVE TISSUE DISORDERS","MUSCULAR WEAKNESS","countdistinct","USUBJID",1,"_NULL_","_NULL_"
"Xanomeline Low Dose","Y","MUSCULOSKELETAL AND CONNECTIVE TISSUE DISORDERS","SHOULDER PAIN","countdistinct","USUBJID",2,"_NULL_","_NULL_"
"Xanomeline Low Dose","Y","NEOPLASMS BENIGN, MALIGNANT AND UNSPECIFIED (INCL CYSTS AND POLYPS)","COLON CANCER","countdistinct","USUBJID",1,"_NULL_","_NULL_"
"Xanomeline Low Dose","Y","NEOPLASMS BENIGN, MALIGNANT AND UNSPECIFIED (INCL CYSTS AND POLYPS)","MALIGNANT FIBROUS HISTIOCYTOMA","countdistinct","USUBJID",1,"_NULL_","_NULL_"
"Xanomeline Low Dose","Y","NERVOUS SYSTEM DISORDERS","BALANCE DISORDER","countdistinct","USUBJID",1,"_NULL_","_NULL_"
"Xanomeline Low Dose","Y","NERVOUS SYSTEM DISORDERS","COMPLEX PARTIAL SEIZURES","countdistinct","USUBJID",1,"_NULL_","_NULL_"
"Xanomeline Low Dose","Y","NERVOUS SYSTEM DISORDERS","COORDINATION ABNORMAL","countdistinct","USUBJID",1,"_NULL_","_NULL_"
"Xanomeline Low Dose","Y","NERVOUS SYSTEM DISORDERS","DIZZINESS","countdistinct","USUBJID",8,"_NULL_","_NULL_"
"Xanomeline Low Dose","Y","NERVOUS SYSTEM DISORDERS","HEADACHE","countdistinct","USUBJID",3,"_NULL_","_NULL_"
"Xanomeline Low Dose","Y","NERVOUS SYSTEM DISORDERS","HEMIANOPIA HOMONYMOUS","countdistinct","USUBJID",1,"_NULL_","_NULL_"
"Xanomeline Low Dose","Y","NERVOUS SYSTEM DISORDERS","LETHARGY","countdistinct","USUBJID",1,"_NULL_","_NULL_"
"Xanomeline Low Dose","Y","NERVOUS SYSTEM DISORDERS","PARAESTHESIA ORAL","countdistinct","USUBJID",1,"_NULL_","_NULL_"
"Xanomeline Low Dose","Y","NERVOUS SYSTEM DISORDERS","SOMNOLENCE","countdistinct","USUBJID",3,"_NULL_","_NULL_"
"Xanomeline Low Dose","Y","NERVOUS SYSTEM DISORDERS","STUPOR","countdistinct","USUBJID",1,"_NULL_","_NULL_"
"Xanomeline Low Dose","Y","NERVOUS SYSTEM DISORDERS","SYNCOPE","countdistinct","USUBJID",4,"_NULL_","_NULL_"
"Xanomeline Low Dose","Y","NERVOUS SYSTEM DISORDERS","TRANSIENT ISCHAEMIC ATTACK","countdistinct","USUBJID",2,"_NULL_","_NULL_"
"Xanomeline Low Dose","Y","PSYCHIATRIC DISORDERS","AGITATION","countdistinct","USUBJID",2,"_NULL_","_NULL_"
"Xanomeline Low Dose","Y","PSYCHIATRIC DISORDERS","ANXIETY","countdistinct","USUBJID",3,"_NULL_","_NULL_"
"Xanomeline Low Dose","Y","PSYCHIATRIC DISORDERS","CONFUSIONAL STATE","countdistinct","USUBJID",3,"_NULL_","_NULL_"
"Xanomeline Low Dose","Y","PSYCHIATRIC DISORDERS","DEPRESSED MOOD","countdistinct","USUBJID",1,"_NULL_","_NULL_"
"Xanomeline Low Dose","Y","PSYCHIATRIC DISORDERS","IRRITABILITY","countdistinct","USUBJID",1,"_NULL_","_NULL_"
"Xanomeline Low Dose","Y","PSYCHIATRIC DISORDERS","RESTLESSNESS","countdistinct","USUBJID",1,"_NULL_","_NULL_"
"Xanomeline Low Dose","Y","RENAL AND URINARY DISORDERS","DYSURIA","countdistinct","USUBJID",1,"_NULL_","_NULL_"
"Xanomeline Low Dose","Y","RENAL AND URINARY DISORDERS","ENURESIS","countdistinct","USUBJID",1,"_NULL_","_NULL_"
"Xanomeline Low Dose","Y","RENAL AND URINARY DISORDERS","INCONTINENCE","countdistinct","USUBJID",1,"_NULL_","_NULL_"
"Xanomeline Low Dose","Y","RENAL AND URINARY DISORDERS","MICTURITION URGENCY","countdistinct","USUBJID",1,"_NULL_","_NULL_"
"Xanomeline Low Dose","Y","RESPIRATORY, THORACIC AND MEDIASTINAL DISORDERS","COUGH","countdistinct","USUBJID",6,"_NULL_","_NULL_"
"Xanomeline Low Dose","Y","RESPIRATORY, THORACIC AND MEDIASTINAL DISORDERS","DYSPHONIA","countdistinct","USUBJID",1,"_NULL_","_NULL_"
"Xanomeline Low Dose","Y","RESPIRATORY, THORACIC AND MEDIASTINAL DISORDERS","DYSPNOEA","countdistinct","USUBJID",1,"_NULL_","_NULL_"
"Xanomeline Low Dose","Y","RESPIRATORY, THORACIC AND MEDIASTINAL DISORDERS","EPISTAXIS","countdistinct","USUBJID",1,"_NULL_","_NULL_"
"Xanomeline Low Dose","Y","RESPIRATORY, THORACIC AND MEDIASTINAL DISORDERS","NASAL CONGESTION","countdistinct","USUBJID",1,"_NULL_","_NULL_"
"Xanomeline Low Dose","Y","RESPIRATORY, THORACIC AND MEDIASTINAL DISORDERS","PHARYNGOLARYNGEAL PAIN","countdistinct","USUBJID",1,"_NULL_","_NULL_"
"Xanomeline Low Dose","Y","RESPIRATORY, THORACIC AND MEDIASTINAL DISORDERS","RHINORRHOEA","countdistinct","USUBJID",1,"_NULL_","_NULL_"
"Xanomeline Low Dose","Y","SKIN AND SUBCUTANEOUS TISSUE DISORDERS","BLISTER","countdistinct","USUBJID",5,"_NULL_","_NULL_"
"Xanomeline Low Dose","Y","SKIN AND SUBCUTANEOUS TISSUE DISORDERS","DERMATITIS CONTACT","countdistinct","USUBJID",1,"_NULL_","_NULL_"
"Xanomeline Low Dose","Y","SKIN AND SUBCUTANEOUS TISSUE DISORDERS","ERYTHEMA","countdistinct","USUBJID",15,"_NULL_","_NULL_"
"Xanomeline Low Dose","Y","SKIN AND SUBCUTANEOUS TISSUE DISORDERS","HYPERHIDROSIS","countdistinct","USUBJID",4,"_NULL_","_NULL_"
"Xanomeline Low Dose","Y","SKIN AND SUBCUTANEOUS TISSUE DISORDERS","PRURITUS","countdistinct","USUBJID",23,"_NULL_","_NULL_"
"Xanomeline Low Dose","Y","SKIN AND SUBCUTANEOUS TISSUE DISORDERS","PRURITUS GENERALISED","countdistinct","USUBJID",1,"_NULL_","_NULL_"
"Xanomeline Low Dose","Y","SKIN AND SUBCUTANEOUS TISSUE DISORDERS","RASH","countdistinct","USUBJID",13,"_NULL_","_NULL_"
"Xanomeline Low Dose","Y","SKIN AND SUBCUTANEOUS TISSUE DISORDERS","RASH ERYTHEMATOUS","countdistinct","USUBJID",2,"_NULL_","_NULL_"
"Xanomeline Low Dose","Y","SKIN AND SUBCUTANEOUS TISSUE DISORDERS","RASH PRURITIC","countdistinct","USUBJID",1,"_NULL_","_NULL_"
"Xanomeline Low Dose","Y","SKIN AND SUBCUTANEOUS TISSUE DISORDERS","SKIN EXFOLIATION","countdistinct","USUBJID",1,"_NULL_","_NULL_"
"Xanomeline Low Dose","Y","SKIN AND SUBCUTANEOUS TISSUE DISORDERS","SKIN IRRITATION","countdistinct","USUBJID",6,"_NULL_","_NULL_"
"Xanomeline Low Dose","Y","SKIN AND SUBCUTANEOUS TISSUE DISORDERS","URTICARIA","countdistinct","USUBJID",1,"_NULL_","_NULL_"
"Xanomeline Low Dose","Y","SURGICAL AND MEDICAL PROCEDURES","CATARACT OPERATION","countdistinct","USUBJID",1,"_NULL_","_NULL_"
"Xanomeline Low Dose","Y","VASCULAR DISORDERS","HOT FLUSH","countdistinct","USUBJID",1,"_NULL_","_NULL_"
"Xanomeline Low Dose","Y","VASCULAR DISORDERS","HYPERTENSION","countdistinct","USUBJID",1,"_NULL_","_NULL_"
"Xanomeline Low Dose","Y","VASCULAR DISORDERS","HYPOTENSION","countdistinct","USUBJID",1,"_NULL_","_NULL_"
